date	time	group	subject	blockcode	blocknum	trialcode	trialnum	response	correct	latency	stimulusnumber1	stimulusitem1	expressions.da	expressions.db	expressions.d	expressions.percentcorrect
120816	21:21:40	1	1	targetcompatiblepractice	1	targetBright	2	23	1	468	6	黑6.jpg			0	0
120816	21:21:40	1	1	targetcompatiblepractice	1	targetBright	3	23	0	906	2	黑2.jpg			0	0
120816	21:21:40	1	1	targetcompatiblepractice	1	targetBright	4	23	1	330	3	黑3.jpg			0	0
120816	21:21:40	1	1	targetcompatiblepractice	1	targetBright	5	23	1	149	1	黑1.jpg			0	0
120816	21:21:40	1	1	targetcompatiblepractice	1	targetAleft	6	18	0	198	6	白6.jpg			0	0
120816	21:21:40	1	1	targetcompatiblepractice	1	targetAleft	7	18	1	115	1	白1.jpg			0	0
120816	21:21:40	1	1	targetcompatiblepractice	1	targetAleft	8	18	1	118	5	白5.jpg			0	0
120816	21:21:40	1	1	targetcompatiblepractice	1	targetAleft	9	18	0	116	4	白4.jpg			0	0
120816	21:21:40	1	1	targetcompatiblepractice	1	targetBright	10	23	1	62	4	黑4.jpg			0	0
120816	21:21:40	1	1	targetcompatiblepractice	1	targetBright	11	23	0	716	5	黑5.jpg			0	0
120816	21:21:40	1	1	targetcompatiblepractice	1	targetBright	12	23	1	50	5	黑5.jpg			0	0
120816	21:21:40	1	1	targetcompatiblepractice	1	targetBright	13	23	0	239	3	黑3.jpg			0	0
120816	21:21:40	1	1	targetcompatiblepractice	1	targetBright	14	23	1	49	2	黑2.jpg			0	0
120816	21:21:40	1	1	targetcompatiblepractice	1	targetBright	15	23	0	50	1	黑1.jpg			0	0
120816	21:21:40	1	1	targetcompatiblepractice	1	targetAleft	16	18	1	28	2	白2.jpg			0	0
120816	21:21:40	1	1	targetcompatiblepractice	1	targetAleft	17	18	0	91	3	白3.jpg			0	0
120816	21:21:40	1	1	targetcompatiblepractice	1	targetAleft	18	18	0	41	5	白5.jpg			0	0
120816	21:21:40	1	1	targetcompatiblepractice	1	targetAleft	19	18	1	3	6	白6.jpg			0	0
120816	21:21:40	1	1	targetcompatiblepractice	1	targetAleft	20	18	1	32	2	白2.jpg			0	0
120816	21:21:40	1	1	targetcompatiblepractice	1	targetAleft	21	18	1	32	1	白1.jpg			0	0
120816	21:21:40	1	1	attributepractice	2	attributeA	2	18	1	176	5	钻石			0	0
120816	21:21:40	1	1	attributepractice	2	attributeA	3	18	1	49	7	甜美			0	0
120816	21:21:40	1	1	attributepractice	2	attributeB	4	23	0	69	1	灾难			0	0
120816	21:21:40	1	1	attributepractice	2	attributeB	5	23	1	15	4	悲伤			0	0
120816	21:21:40	1	1	attributepractice	2	attributeB	6	23	1	32	7	屈辱			0	0
120816	21:21:40	1	1	attributepractice	2	attributeA	7	18	0	142	1	微笑			0	0
120816	21:21:40	1	1	attributepractice	2	attributeB	8	23	0	87	8	瘫痪			0	0
120816	21:21:40	1	1	attributepractice	2	attributeA	9	18	0	90	6	和平			0	0
120816	21:21:40	1	1	attributepractice	2	attributeA	10	18	1	20	2	诚实			0	0
120816	21:21:40	1	1	attributepractice	2	attributeB	11	23	1	21	5	腐烂			0	0
120816	21:21:40	1	1	attributepractice	2	attributeA	12	18	0	90	8	精彩			0	0
120816	21:21:40	1	1	attributepractice	2	attributeB	13	23	0	37	2	痛苦			0	0
120816	21:21:40	1	1	attributepractice	2	attributeB	14	23	1	20	6	悲剧			0	0
120816	21:21:40	1	1	attributepractice	2	attributeA	15	18	0	83	3	真诚			0	0
120816	21:21:40	1	1	attributepractice	2	attributeB	16	23	1	41	3	仇恨			0	0
120816	21:21:40	1	1	attributepractice	2	attributeA	17	18	0	91	4	幸运			0	0
120816	21:21:40	1	1	attributepractice	2	attributeB	18	23	1	48	1	灾难			0	0
120816	21:21:40	1	1	attributepractice	2	attributeA	19	18	1	79	3	真诚			0	0
120816	21:21:40	1	1	attributepractice	2	attributeB	20	23	1	47	8	瘫痪			0	0
120816	21:21:40	1	1	attributepractice	2	attributeA	21	18	1	109	1	微笑			0	0
120816	21:21:40	1	1	compatibletest1	3	attributeA	2	18	0	216	4	幸运			0	0
120816	21:21:40	1	1	compatibletest1	3	targetAleft	3	18	1	40	4	白4.jpg	-0.8318003918560582521		-0.4159001959280291261	50
120816	21:21:40	1	1	compatibletest1	3	attributeB	4	23	0	92	2	痛苦	-1.0088100794665055826		-0.5044050397332527913	33.3333333333333285964
120816	21:21:40	1	1	compatibletest1	3	targetBright	5	23	0	56	4	黑4.jpg	-1.0228143100834561352		-0.5114071550417280676	25
120816	21:21:40	1	1	compatibletest1	3	attributeA	6	18	0	40	8	精彩	-0.994593609875146889		-0.4972968049375734445	20
120816	21:21:40	1	1	compatibletest1	3	targetAleft	7	18	0	76	3	白3.jpg	-1.059878094689612249		-0.5299390473448061245	16.6666666666666642982
120816	21:21:40	1	1	compatibletest1	3	attributeA	8	18	1	31	2	诚实	-1.0209681671371277911		-0.5104840835685638956	28.5714285714285693984
120816	21:21:40	1	1	compatibletest1	3	targetAleft	9	18	0	156	1	白1.jpg	-1.0941370076088334784		-0.5470685038044167392	25
120816	21:21:40	1	1	compatibletest1	3	attributeB	10	23	0	97	3	仇恨	-1.1524483534256138029		-0.5762241767128069014	22.2222222222222214327
120816	21:21:40	1	1	compatibletest1	3	targetAleft	11	18	0	77	5	白5.jpg	-1.1860855036929334183		-0.5930427518464667092	20
120816	21:21:40	1	1	compatibletest1	3	attributeA	12	18	0	110	5	钻石	-1.2374128905723553729		-0.6187064452861776864	18.1818181818181834331
120816	21:21:40	1	1	compatibletest1	3	targetBright	13	23	1	8	6	黑6.jpg	-1.149896006281405203		-0.5749480031407026015	25
120816	21:21:40	1	1	compatibletest1	3	attributeB	14	23	1	90	7	屈辱	-1.1875245406745740251		-0.5937622703372870125	30.7692307692307700506
120816	21:21:40	1	1	compatibletest1	3	targetAleft	15	18	0	152	4	白4.jpg	-1.2191023334856203597		-0.6095511667428101799	28.5714285714285693984
120816	21:21:40	1	1	compatibletest1	3	attributeB	16	23	0	126	5	腐烂	-1.2562516139553909778		-0.6281258069776954889	26.6666666666666678509
120816	21:21:40	1	1	compatibletest1	3	targetBright	17	23	0	81	3	黑3.jpg	-1.2765570176496268129		-0.6382785088248134064	25
120816	21:21:40	1	1	compatibletest1	3	attributeB	18	23	0	91	6	悲剧	-1.3011056155013112079		-0.6505528077506556039	23.5294117647058804721
120816	21:21:40	1	1	compatibletest1	3	targetBright	19	23	1	45	4	黑4.jpg	-1.2873715774661402822		-0.6436857887330701411	27.7777777777777785673
120816	21:21:40	1	1	compatibletest1	3	attributeA	20	18	0	134	7	甜美	-1.3125310053203758098		-0.6562655026601879049	26.3157894736842088435
120816	21:21:40	1	1	compatibletest1	3	targetBright	21	23	1	66	5	黑5.jpg	-1.318653943406094875		-0.6593269717030474375	30
120816	21:21:40	1	1	compatibletest2	5	attributeB	1	23	0	163	4	悲伤	-1.318653943406094875		-0.6593269717030474375	28.5714285714285693984
120816	21:21:40	1	1	compatibletest2	5	targetAleft	2	18	1	69	2	白2.jpg	-1.318653943406094875	-1.098748941931040557	-1.208701442668567605	31.8181818181818165669
120816	21:21:40	1	1	compatibletest2	5	attributeA	3	18	1	127	6	和平	-1.318653943406094875	-1.3709244422691957421	-1.3447891928376454196	34.7826086956521720595
120816	21:21:40	1	1	compatibletest2	5	targetBright	4	23	0	125	2	黑2.jpg	-1.318653943406094875	-1.5140384769831651823	-1.4163462101946300287	33.3333333333333285964
120816	21:21:40	1	1	compatibletest2	5	attributeA	5	18	1	49	1	微笑	-1.318653943406094875	-1.4097381481697397465	-1.3641960457879171997	36
120816	21:21:40	1	1	compatibletest2	5	targetAleft	6	18	1	103	6	白6.jpg	-1.318653943406094875	-1.4833664411556137797	-1.4010101922808542163	38.4615384615384670042
120816	21:21:40	1	1	compatibletest2	5	attributeB	7	23	1	108	8	瘫痪	-1.318653943406094875	-1.5434942783702452207	-1.4310741108881699368	40.7407407407407404776
120816	21:21:40	1	1	compatibletest2	5	targetAleft	8	18	0	148	3	白3.jpg	-1.318653943406094875	-1.5753073248282647434	-1.4469806341171798092	39.2857142857142846992
120816	21:21:40	1	1	compatibletest2	5	attributeB	9	23	1	48	2	痛苦	-1.318653943406094875	-1.5088491458260411271	-1.413751544616068001	41.379310344827587187
120816	21:21:40	1	1	compatibletest2	5	targetBright	10	23	0	429	6	黑6.jpg	-1.318653943406094875	-1.0416850444766834194	-1.1801694939413891472	40
120816	21:21:40	1	1	compatibletest2	5	attributeA	11	18	1	77	6	和平	-1.318653943406094875	-1.0412799132219654474	-1.1799669283140301612	41.9354838709677437691
120816	21:21:40	1	1	compatibletest2	5	targetAleft	12	18	1	73	3	白3.jpg	-1.318653943406094875	-1.0396948511736667786	-1.1791743972898807158	43.75
120816	21:21:40	1	1	compatibletest2	5	attributeA	13	18	1	65	4	幸运	-1.318653943406094875	-1.0336815314306322389	-1.176167737418363668	45.4545454545454532536
120816	21:21:40	1	1	compatibletest2	5	targetBright	14	23	0	102	1	黑1.jpg	-1.318653943406094875	-1.0543209388536951554	-1.1864874411298949042	44.1176470588235289938
120816	21:21:40	1	1	compatibletest2	5	attributeA	15	18	0	152	8	精彩	-1.318653943406094875	-1.0925871751650808594	-1.2056205592855877562	42.8571428571428540977
120816	21:21:40	1	1	compatibletest2	5	targetBright	16	23	1	81	6	黑6.jpg	-1.318653943406094875	-1.0981158889275326462	-1.2083849161668136496	44.4444444444444428655
120816	21:21:40	1	1	compatibletest2	5	attributeB	17	23	1	70	6	悲剧	-1.318653943406094875	-1.0972372840621280599	-1.2079456137341115785	45.9459459459459509389
120816	21:21:40	1	1	compatibletest2	5	targetAleft	18	18	0	139	5	白5.jpg	-1.318653943406094875	-1.1269114210213773131	-1.2227826822137362051	44.7368421052631575208
120816	21:21:40	1	1	compatibletest2	5	attributeA	19	18	0	122	5	钻石	-1.318653943406094875	-1.150121127369748697	-1.234387535387921897	43.5897435897435912011
120816	21:21:40	1	1	compatibletest2	5	targetBright	20	23	1	103	4	黑4.jpg	-1.318653943406094875	-1.1653591732419013027	-1.2420065583239980889	45
120816	21:21:40	1	1	compatibletest2	5	attributeB	21	23	1	105	5	腐烂	-1.318653943406094875	-1.1807920341629849492	-1.2497229887845398011	46.3414634146341484211
120816	21:21:40	1	1	compatibletest2	5	targetBright	22	23	1	100	1	黑1.jpg	-1.318653943406094875	-1.1937447561989191769	-1.2561993498025070259	47.6190476190476132956
120816	21:21:40	1	1	compatibletest2	5	attributeA	23	18	0	182	2	诚实	-1.318653943406094875	-1.2175747945057862065	-1.2681143689559406518	46.5116279069767415422
120816	21:21:40	1	1	compatibletest2	5	targetBright	24	23	0	185	2	黑2.jpg	-1.318653943406094875	-1.2397231748970038989	-1.279188559151549498	45.4545454545454532536
120816	21:21:40	1	1	compatibletest2	5	attributeB	25	23	1	111	1	灾难	-1.318653943406094875	-1.2529770234970891707	-1.2858154834515920228	46.6666666666666642982
120816	21:21:40	1	1	compatibletest2	5	targetBright	26	23	1	128	5	黑5.jpg	-1.318653943406094875	-1.2699006436463953218	-1.2942772935262452094	47.8260869565217419108
120816	21:21:40	1	1	compatibletest2	5	attributeB	27	23	1	106	7	屈辱	-1.318653943406094875	-1.2805612384535174364	-1.2996075909298061557	48.9361702127659583539
120816	21:21:40	1	1	compatibletest2	5	targetBright	28	23	1	106	3	黑3.jpg	-1.318653943406094875	-1.2909118497958704808	-1.3047828966009826779	50
120816	21:21:40	1	1	compatibletest2	5	attributeA	29	18	1	19	3	真诚	-1.318653943406094875	-1.2564059156285953822	-1.2875299295173450176	51.0204081632653085876
120816	21:21:40	1	1	compatibletest2	5	targetAleft	30	18	0	125	1	白1.jpg	-1.318653943406094875	-1.2712412556169989664	-1.2949475995115469207	50
120816	21:21:40	1	1	compatibletest2	5	attributeB	31	23	0	173	4	悲伤	-1.318653943406094875	-1.2876460246115588593	-1.3031499840088267561	49.0196078431372512796
120816	21:21:40	1	1	compatibletest2	5	targetAleft	32	18	1	20	6	白6.jpg	-1.318653943406094875	-1.2572933000910704315	-1.2879736217485826533	50
120816	21:21:40	1	1	compatibletest2	5	attributeB	33	23	0	171	3	仇恨	-1.318653943406094875	-1.2730304686510323098	-1.2958422060285634814	49.0566037735849036494
120816	21:21:40	1	1	compatibletest2	5	targetBright	34	23	0	98	1	黑1.jpg	-1.318653943406094875	-1.2801413373485150959	-1.2993976403773048744	48.1481481481481452533
120816	21:21:40	1	1	compatibletest2	5	attributeA	35	18	0	100	7	甜美	-1.318653943406094875	-1.2876570332408781017	-1.3031554883234863773	47.2727272727272733732
120816	21:21:40	1	1	compatibletest2	5	targetAleft	36	18	0	86	2	白2.jpg	-1.318653943406094875	-1.2910763290029130257	-1.3048651362045040614	46.4285714285714306016
120816	21:21:40	1	1	compatibletest2	5	attributeA	37	18	0	120	2	诚实	-1.318653943406094875	-1.3023486635987169269	-1.3105013035024057899	45.6140350877192943813
120816	21:21:40	1	1	compatibletest2	5	targetAleft	38	18	0	73	4	白4.jpg	-1.318653943406094875	-1.3013605793851414916	-1.3100072613956181833	44.8275862068965551543
120816	21:21:40	1	1	compatibletest2	5	attributeB	39	23	1	40	8	瘫痪	-1.318653943406094875	-1.2868106062162321113	-1.3027322748111633821	45.7627118644067820696
120816	21:21:40	1	1	compatibletest2	5	targetAleft	40	18	0	129	4	白4.jpg	-1.318653943406094875	-1.2986654773300962962	-1.3086597103680954746	45
120816	21:21:40	1	1	targetincompatiblepractice	6	targetBleft	2	18	0	150	5	黑5.jpg	-1.318653943406094875	-1.2986654773300962962	-1.3086597103680954746	45
120816	21:21:40	1	1	targetincompatiblepractice	6	targetBleft	3	18	1	16	3	黑3.jpg	-1.318653943406094875	-1.2986654773300962962	-1.3086597103680954746	45
120816	21:21:40	1	1	targetincompatiblepractice	6	targetBleft	4	18	1	78	6	黑6.jpg	-1.318653943406094875	-1.2986654773300962962	-1.3086597103680954746	45
120816	21:21:40	1	1	targetincompatiblepractice	6	targetBleft	5	18	0	83	2	黑2.jpg	-1.318653943406094875	-1.2986654773300962962	-1.3086597103680954746	45
120816	21:21:40	1	1	targetincompatiblepractice	6	targetAright	6	23	1	19	3	白3.jpg	-1.318653943406094875	-1.2986654773300962962	-1.3086597103680954746	45
120816	21:21:40	1	1	targetincompatiblepractice	6	targetBleft	7	18	0	127	4	黑4.jpg	-1.318653943406094875	-1.2986654773300962962	-1.3086597103680954746	45
120816	21:21:40	1	1	targetincompatiblepractice	6	targetBleft	8	18	1	2067	6	黑6.jpg	-1.318653943406094875	-1.2986654773300962962	-1.3086597103680954746	45
120816	21:21:40	1	1	targetincompatiblepractice	6	targetBleft	9	18	1	415	2	黑2.jpg	-1.318653943406094875	-1.2986654773300962962	-1.3086597103680954746	45
120816	21:21:40	1	1	targetincompatiblepractice	6	targetAright	10	23	0	563	1	白1.jpg	-1.318653943406094875	-1.2986654773300962962	-1.3086597103680954746	45
120816	21:21:40	1	1	targetincompatiblepractice	6	targetAright	11	23	1	385	5	白5.jpg	-1.318653943406094875	-1.2986654773300962962	-1.3086597103680954746	45
120816	21:21:40	1	1	targetincompatiblepractice	6	targetBleft	12	18	0	518	5	黑5.jpg	-1.318653943406094875	-1.2986654773300962962	-1.3086597103680954746	45
120816	21:21:40	1	1	targetincompatiblepractice	6	targetAright	13	23	0	699	6	白6.jpg	-1.318653943406094875	-1.2986654773300962962	-1.3086597103680954746	45
120816	21:21:40	1	1	targetincompatiblepractice	6	targetAright	14	23	1	230	2	白2.jpg	-1.318653943406094875	-1.2986654773300962962	-1.3086597103680954746	45
120816	21:21:40	1	1	targetincompatiblepractice	6	targetAright	15	23	1	513	1	白1.jpg	-1.318653943406094875	-1.2986654773300962962	-1.3086597103680954746	45
120816	21:21:40	1	1	targetincompatiblepractice	6	targetAright	16	23	1	378	3	白3.jpg	-1.318653943406094875	-1.2986654773300962962	-1.3086597103680954746	45
120816	21:21:40	1	1	targetincompatiblepractice	6	targetAright	17	23	1	422	4	白4.jpg	-1.318653943406094875	-1.2986654773300962962	-1.3086597103680954746	45
120816	21:21:40	1	1	targetincompatiblepractice	6	targetAright	18	23	1	340	6	白6.jpg	-1.318653943406094875	-1.2986654773300962962	-1.3086597103680954746	45
120816	21:21:40	1	1	targetincompatiblepractice	6	targetBleft	19	18	1	425	1	黑1.jpg	-1.318653943406094875	-1.2986654773300962962	-1.3086597103680954746	45
120816	21:21:40	1	1	targetincompatiblepractice	6	targetAright	20	23	0	535	2	白2.jpg	-1.318653943406094875	-1.2986654773300962962	-1.3086597103680954746	45
120816	21:21:40	1	1	targetincompatiblepractice	6	targetBleft	21	18	0	570	3	黑3.jpg	-1.318653943406094875	-1.2986654773300962962	-1.3086597103680954746	45
120816	21:21:40	1	1	incompatibletest1	7	attributeB	2	23	1	590	3	仇恨	1.9177603386089157045	-1.2986654773300962962	0.3095474306394097042	45.9016393442622927523
120816	21:21:40	1	1	incompatibletest1	7	targetBleft	3	18	1	110	4	黑4.jpg	1.6317481453184941032	-1.2986654773300962962	0.1665413339941989035	46.7741935483870960866
120816	21:21:40	1	1	incompatibletest1	7	attributeB	4	23	0	121	2	痛苦	1.3802088185626382177	-1.2986654773300962962	0.0407716706162709608	46.0317460317460316332
120816	21:21:40	1	1	incompatibletest1	7	targetBleft	5	18	1	32	6	黑6.jpg	1.0302558472285181512	-1.2986654773300962962	-0.1342048150507890725	46.875
120816	21:21:40	1	1	incompatibletest1	7	attributeA	6	18	0	67	8	精彩	0.8282711822696734449	-1.2986654773300962962	-0.2351971475302114256	46.1538461538461532996
120816	21:21:40	1	1	incompatibletest1	7	targetAright	7	23	1	31	5	白5.jpg	0.6233840781227167893	-1.2986654773300962962	-0.3376406996036897534	46.9696969696969688357
120816	21:21:40	1	1	incompatibletest1	7	attributeA	8	18	1	48	6	和平	0.4920497742341267133	-1.2986654773300962962	-0.4033078515479847637	47.7611940298507420266
120816	21:21:40	1	1	incompatibletest1	7	targetBleft	9	18	0	58	5	黑5.jpg	0.4023027442541540211	-1.2986654773300962962	-0.4481813665379711376	47.0588235294117609442
120816	21:21:40	1	1	incompatibletest1	7	attributeA	10	18	0	35	5	钻石	0.3052145862469615722	-1.2986654773300962962	-0.4967254455415673897	46.3768115942028984477
120816	21:21:40	1	1	incompatibletest1	7	targetAright	11	23	0	50	5	白5.jpg	0.2409721589186315793	-1.2986654773300962962	-0.5288466592057323723	45.7142857142857153008
120816	21:21:40	1	1	incompatibletest1	7	attributeB	12	23	0	54	4	悲伤	0.190961558726666758	-1.2986654773300962962	-0.5538519593017148246	45.0704225352112715086
120816	21:21:40	1	1	incompatibletest1	7	targetBleft	13	18	0	67	4	黑4.jpg	0.1593728828335824743	-1.2986654773300962962	-0.5696462972482568832	44.4444444444444428655
120816	21:21:40	1	1	incompatibletest1	7	attributeA	14	18	0	56	7	甜美	0.1234243868351850432	-1.2986654773300962962	-0.5876205452474556612	43.8356164383561619502
120816	21:21:40	1	1	incompatibletest1	7	targetAright	15	23	1	27	4	白4.jpg	0.0704899993497040966	-1.2986654773300962962	-0.6140877389901960859	44.594594594594596515
120816	21:21:40	1	1	incompatibletest1	7	attributeA	16	18	0	257	3	真诚	0.1749745323204658087	-1.2986654773300962962	-0.5618454725048152021	44
120816	21:21:40	1	1	incompatibletest1	7	targetAright	17	23	0	145	2	白2.jpg	0.2008278400317095036	-1.2986654773300962962	-0.5489188186491933408	43.42105263157895223
120816	21:21:40	1	1	incompatibletest1	7	attributeB	18	23	1	24	5	腐烂	0.1515850903183778853	-1.2986654773300962962	-0.5735401935058591638	44.1558441558441572283
120816	21:21:40	1	1	incompatibletest1	7	targetAright	19	23	0	33	1	白1.jpg	0.1126130111327298261	-1.2986654773300962962	-0.5930262330986831865	43.5897435897435912011
120816	21:21:40	1	1	incompatibletest1	7	attributeB	20	23	0	33	7	屈辱	0.0772499348958864823	-1.2986654773300962962	-0.6107077712171049555	43.0379746835443057762
120816	21:21:40	1	1	incompatibletest1	7	targetBleft	21	18	0	33	3	黑3.jpg	0.0449521638151988492	-1.2986654773300962962	-0.6268566567574487269	42.5
120816	21:21:40	1	1	incompatibletest2	9	attributeB	1	23	0	143	6	悲剧	0.0449521638151988492	0.4467256648868077051	0.2458389143510032737	41.9753086419753032033
120816	21:21:40	1	1	incompatibletest2	9	targetBleft	2	18	0	136	2	黑2.jpg	0.0449521638151988492	0.4011205051106825903	0.2230363344629407163	41.4634146341463392105
120816	21:21:40	1	1	incompatibletest2	9	attributeA	3	18	1	89	1	微笑	0.0449521638151988492	0.1475764027962017666	0.0962642833057003044	42.168674698795186373
120816	21:21:40	1	1	incompatibletest2	9	targetAright	4	23	1	45	6	白6.jpg	0.0449521638151988492	-0.1564507687947701564	-0.0557493024897856571	42.8571428571428540977
120816	21:21:40	1	1	incompatibletest2	9	attributeB	5	23	1	51	1	灾难	0.0449521638151988492	-0.3184367043652249762	-0.136742270275013067	43.5294117647058840248
120816	21:21:40	1	1	incompatibletest2	9	targetAright	6	23	1	59	3	白3.jpg	0.0449521638151988492	-0.4062140730291783353	-0.1806309546069897465	44.1860465116279073072
120816	21:21:40	1	1	incompatibletest2	9	attributeB	7	23	1	68	5	腐烂	0.0449521638151988492	-0.4510876263621771964	-0.2030677312734891771	44.8275862068965551543
120816	21:21:40	1	1	incompatibletest2	9	targetBleft	8	18	1	27	1	黑1.jpg	0.0449521638151988492	-0.5568123168773296827	-0.2559300765310654202	45.4545454545454532536
120816	21:21:40	1	1	incompatibletest2	9	attributeB	9	23	0	116	8	瘫痪	0.0449521638151988492	-0.4978338809193069703	-0.226440858552054064	44.9438202247190972116
120816	21:21:40	1	1	incompatibletest2	9	targetBleft	10	18	0	91	1	黑1.jpg	0.0449521638151988492	-0.488514235639425809	-0.2217810359121134833	44.4444444444444428655
120816	21:21:40	1	1	incompatibletest2	9	attributeA	11	18	0	103	4	幸运	0.0449521638151988492	-0.4645227561948229722	-0.2097852961898120649	43.9560439560439562001
120816	21:21:40	1	1	incompatibletest2	9	targetAright	12	23	1	8	3	白3.jpg	0.0449521638151988492	-0.5570664065321280223	-0.25605712135846459	44.5652173913043441189
120816	21:21:40	1	1	incompatibletest2	9	attributeA	13	18	0	174	6	和平	0.0449521638151988492	-0.4418124727392913065	-0.1984301544620462321	44.0860215053763440096
120816	21:21:40	1	1	incompatibletest2	9	targetBleft	14	18	0	114	5	黑5.jpg	0.0449521638151988492	-0.4138503475970777279	-0.1844490918909394428	43.6170212765957501233
120816	21:21:40	1	1	incompatibletest2	9	attributeA	15	18	1	133	4	幸运	0.0449521638151988492	-0.3685197637188155073	-0.1617837999518083325	44.2105263157894725623
120816	21:21:40	1	1	incompatibletest2	9	targetAright	16	23	0	150	6	白6.jpg	0.0449521638151988492	-0.3102223055131065332	-0.1326350708489538455	43.75
120816	21:21:40	1	1	incompatibletest2	9	attributeB	17	23	0	100	3	仇恨	0.0449521638151988492	-0.307460679921515212	-0.1312542580531581848	43.2989690721649509442
120816	21:21:40	1	1	incompatibletest2	9	targetAright	18	23	1	83	2	白2.jpg	0.0449521638151988492	-0.3203699009600943226	-0.1377088685724477402	43.8775510204081626853
120816	21:21:40	1	1	incompatibletest2	9	attributeA	19	18	1	114	1	微笑	0.0449521638151988492	-0.3055818120318798403	-0.130314824108340499	44.4444444444444428655
120816	21:21:40	1	1	incompatibletest2	9	targetBleft	20	18	1	98	6	黑6.jpg	0.0449521638151988492	-0.3056279453805301749	-0.1303378907826656663	45
120816	21:21:40	1	1	incompatibletest2	9	attributeA	21	18	0	150	3	真诚	0.0449521638151988492	-0.2627989858761195507	-0.1089234110304603542	44.5544554455445549479
120816	21:21:40	1	1	incompatibletest2	9	targetAright	22	23	1	63	4	白4.jpg	0.0449521638151988492	-0.2905047738775892729	-0.1227763050311952153	45.0980392156862777142
120816	21:21:40	1	1	incompatibletest2	9	attributeB	23	23	1	93	4	悲伤	0.0449521638151988492	-0.295100943395873172	-0.1250743897903371649	45.6310679611650513721
120816	21:21:40	1	1	incompatibletest2	9	targetBleft	24	18	0	189	3	黑3.jpg	0.0449521638151988492	-0.2272076233817467428	-0.0911277297832739502	45.1923076923076934008
120816	21:21:40	1	1	incompatibletest2	9	attributeB	25	23	1	20	2	痛苦	0.0449521638151988492	-0.2788182340432203699	-0.1169330351140107638	45.7142857142857153008
120816	21:21:40	1	1	incompatibletest2	9	targetBleft	26	18	1	38	2	黑2.jpg	0.0449521638151988492	-0.3159934237538771229	-0.1355206299693391403	46.2264150943396217031
120816	21:21:40	1	1	incompatibletest2	9	attributeA	27	18	1	104	7	甜美	0.0449521638151988492	-0.3124461466504974694	-0.1337469914176493135	46.7289719626168249533
120816	21:21:40	1	1	incompatibletest2	9	targetBleft	28	18	1	125	4	黑4.jpg	0.0449521638151988492	-0.2962120317252010526	-0.1256299339550011052	47.2222222222222214327
120816	21:21:40	1	1	incompatibletest2	9	attributeB	29	23	1	128	6	悲剧	0.0449521638151988492	-0.2791384310885250408	-0.1170931336366630993	47.7064220183486256133
120816	21:21:40	1	1	incompatibletest2	9	targetBleft	30	18	0	146	3	黑3.jpg	0.0449521638151988492	-0.2521419889209843279	-0.1035949125528927428	47.2727272727272733732
120816	21:21:40	1	1	incompatibletest2	9	attributeA	31	18	0	132	8	精彩	0.0449521638151988492	-0.2349859453650317842	-0.095016890774916471	46.8468468468468444144
120816	21:21:40	1	1	incompatibletest2	9	targetBleft	32	18	0	498	2	黑2.jpg	0.0449521638151988492	-0.0152976688796681252	0.0148272474677653629	46.4285714285714306016
120816	21:21:40	1	1	incompatibletest2	9	attributeA	33	18	0	93	5	钻石	0.0449521638151988492	-0.0233292525123356027	0.0108114556514316233	46.0176991150442447065
120816	21:21:40	1	1	incompatibletest2	9	targetAright	34	23	1	49	1	白1.jpg	0.0449521638151988492	-0.0485915484052878641	-0.0018196922950445074	46.4912280701754383472
120816	21:21:40	1	1	incompatibletest2	9	attributeB	35	23	1	81	1	灾难	0.0449521638151988492	-0.0601732501648350113	-0.007610543174818081	46.9565217391304372541
120816	21:21:40	1	1	incompatibletest2	9	targetAright	36	23	0	282	5	白5.jpg	0.0449521638151988492	0.005952953600705203	0.025452558707952027	46.5517241379310320326
120816	21:21:40	1	1	incompatibletest2	9	attributeB	37	23	0	78	7	屈辱	0.0449521638151988492	-0.0070044893278289801	0.0189738372436849337	46.1538461538461532996
120816	21:21:40	1	1	incompatibletest2	9	targetAright	38	23	0	124	4	白4.jpg	0.0449521638151988492	-0.003030815608926719	0.0209606741031360642	45.7627118644067820696
120816	21:21:40	1	1	incompatibletest2	9	attributeA	39	18	0	225	2	诚实	0.0449521638151988492	0.0355834269991184907	0.04026779540715867	45.3781512605042038899
120816	21:21:40	1	1	incompatibletest2	9	targetAright	40	23	0	151	1	白1.jpg	0.0449521638151988492	0.047609005604834935	0.0462805847100168921	45
