date	time	group	subject	blockcode	blocknum	trialcode	trialnum	response	correct	latency	stimulusnumber1	stimulusitem1	expressions.d1	expressions.d2	expressions.d	expressions.percentcorrect
121016	12:56:01	1	1	short_a	2	targetBLeft	3	18	0	1361	1	B1.jpg			0	0
121016	12:56:01	1	1	short_a	2	targetARight	4	23	1	2385	1	W1.jpeg			0	0
121016	12:56:01	1	1	short_a	2	targetBLeft	5	18	1	1454	2	B2.jpg			0	0
121016	12:56:01	1	1	short_a	2	targetARight	6	23	1	970	2	W2.jpg			0	0
121016	12:56:01	1	1	short_a	2	attributeB	7	18	0	3010	2	糟糕			0	0
121016	12:56:01	1	1	short_a	2	targetBLeft	8	18	0	2693	4	B4.jpg			0	0
121016	12:56:01	1	1	short_a	2	attributeB	9	18	1	1314	4	讨厌			0	0
121016	12:56:01	1	1	short_a	2	targetARight	10	23	0	2302	4	W4.jpeg			0	0
121016	12:56:01	1	1	short_a	2	attributeA	11	23	1	725	3	豪华			0	0
121016	12:56:01	1	1	short_a	2	targetBLeft	12	18	1	2508	3	B3.jpeg			0	0
121016	12:56:01	1	1	short_a	2	attributeA	13	23	1	882	4	完美			0	0
121016	12:56:01	1	1	short_a	2	targetARight	14	23	1	661	3	W3.jpeg			0	0
121016	12:56:01	1	1	short_b	3	targetALeft	3	18	0	2174	1	W1.jpeg			0	0
121016	12:56:01	1	1	short_b	3	targetBRight	4	23	1	930	1	B1.jpg			0	0
121016	12:56:01	1	1	short_b	3	targetBRight	5	23	1	601	2	B2.jpg			0	0
121016	12:56:01	1	1	short_b	3	targetALeft	6	18	1	689	4	W4.jpeg			0	0
121016	12:56:01	1	1	short_b	3	attributeB	7	18	1	1021	3	差劲			0	0
121016	12:56:01	1	1	short_b	3	targetALeft	8	18	0	1815	3	W3.jpeg			0	0
121016	12:56:01	1	1	short_b	3	attributeA	9	23	0	1186	1	有趣			0	0
121016	12:56:01	1	1	short_b	3	targetBRight	10	23	1	578	3	B3.jpeg			0	0
121016	12:56:01	1	1	short_b	3	attributeA	11	23	1	519	2	极佳			0	0
121016	12:56:01	1	1	short_b	3	targetBRight	12	23	0	877	4	B4.jpg			0	0
121016	12:56:01	1	1	short_b	3	attributeB	13	18	0	1139	1	可怕			0	0
121016	12:56:01	1	1	short_b	3	targetALeft	14	18	1	359	2	W2.jpg			0	0
121016	12:56:01	1	1	A	4	targetARight	3	23	1	1516	3	W3.jpeg			0	0
121016	12:56:01	1	1	A	4	targetBLeft	4	18	1	782	3	B3.jpeg			0	0
121016	12:56:01	1	1	A	4	targetARight	5	23	1	484	1	W1.jpeg			0	0
121016	12:56:01	1	1	A	4	targetBLeft	6	18	1	737	1	B1.jpg			0	0
121016	12:56:01	1	1	A	4	attributeB	7	18	1	2157	4	讨厌			0	100
121016	12:56:01	1	1	A	4	targetBLeft	8	18	1	763	2	B2.jpg	-1.0228519711417503046		-0.5114259855708751523	100
121016	12:56:01	1	1	A	4	attributeA	9	23	1	774	2	极佳	-1.1188196514880899279		-0.559409825744044964	100
121016	12:56:01	1	1	A	4	targetARight	10	23	1	564	4	W4.jpeg	-1.1113270864681956684		-0.5556635432340978342	100
121016	12:56:01	1	1	A	4	attributeB	11	18	1	753	1	可怕	-1.1665164012269748639		-0.583258200613487432	100
121016	12:56:01	1	1	A	4	targetBLeft	12	18	1	1403	4	B4.jpg	-1.26956692133899951		-0.634783460669499755	100
121016	12:56:01	1	1	A	4	attributeA	13	23	0	2334	3	豪华	-1.2564767725705423551		-0.6282383862852711776	85.7142857142857081953
121016	12:56:01	1	1	A	4	targetARight	14	23	1	740	2	W2.jpg	-1.2558491007843994858		-0.6279245503921997429	87.5
121016	12:56:01	1	1	A	4	attributeB	15	18	0	1281	3	差劲	-1.311491158422984471		-0.6557455792114922355	77.7777777777777856727
121016	12:56:01	1	1	A	4	targetBLeft	16	18	0	1123	1	B1.jpg	-1.3505326757246423064		-0.6752663378623211532	70
121016	12:56:01	1	1	A	4	attributeB	17	18	1	380	2	糟糕	-1.2916111892609929424		-0.6458055946304964712	72.7272727272727337322
121016	12:56:01	1	1	A	4	targetARight	18	23	0	1196	4	W4.jpeg	-1.3308760757328728097		-0.6654380378664364049	66.6666666666666571928
121016	12:56:01	1	1	A	4	attributeA	19	23	1	398	1	有趣	-1.2882925056893557159		-0.6441462528446778579	69.2307692307692263967
121016	12:56:01	1	1	A	4	targetARight	20	23	1	540	2	W2.jpg	-1.2731840061885846271		-0.6365920030942923136	71.4285714285714306016
121016	12:56:01	1	1	A	4	attributeA	21	23	1	399	4	完美	-1.2442599361150032955		-0.6221299680575016477	73.3333333333333285964
121016	12:56:01	1	1	A	4	targetBLeft	22	Ctrl+'Q'	0	5146	4	B4.jpg	-0.91939188287465623		-0.459695941437328115	68.75
