date	time	group	subject	build	blocknum	trialnum	blockcode	trialcode	pretrialpause	posttrialpause	windowcenter	trialduration	trialtimeout	blocktimeout	response	correct	latency	inwindow
120716	09:22:33	1	1	4.0.9.0	1	1	expblk	3	500	0	0	0	0	0	org1	0	4399	0
120716	09:22:33	1	1	4.0.9.0	1	2	expblk	1	500	0	0	0	0	0	stim1	1	6728	0
120716	09:22:33	1	1	4.0.9.0	1	3	expblk	3	500	0	0	0	0	0	org1	0	1737	0
120716	09:22:33	1	1	4.0.9.0	1	4	expblk	4	500	0	0	0	0	0	stim4	1	2496	0
120716	09:22:33	1	1	4.0.9.0	1	5	expblk	2	500	0	0	0	0	0	Ctrl+'Q'	1	13140	0
120716	09:24:34	1	1	4.0.9.0	1	1	expblk	1	500	0	0	0	0	0	-1	1	10262	0
120716	09:24:34	1	1	4.0.9.0	1	2	expblk	4	500	0	0	0	0	0	-1	1	116	0
120716	09:24:34	1	1	4.0.9.0	1	3	expblk	1	500	0	0	0	0	0	-1	1	381	0
120716	09:24:34	1	1	4.0.9.0	1	4	expblk	4	500	0	0	0	0	0	Ctrl+'Q'	1	3629	0
120716	09:26:31	1	1	4.0.9.0	1	1	expblk	4	500	0	0	0	0	0	stim4	1	5623	0
120716	09:26:31	1	1	4.0.9.0	1	2	expblk	1	500	0	0	0	0	0	stim1	1	2039	0
120716	09:26:31	1	1	4.0.9.0	1	3	expblk	3	500	0	0	0	0	0	org4	0	917	0
120716	09:26:31	1	1	4.0.9.0	1	4	expblk	2	500	0	0	0	0	0	stim2	1	2146	0
120716	09:26:31	1	1	4.0.9.0	1	5	expblk	4	500	0	0	0	0	0	org3	0	4174	0
120716	09:26:31	1	1	4.0.9.0	1	6	expblk	3	500	0	0	0	0	0	org1	0	1621	0
120716	09:26:31	1	1	4.0.9.0	1	7	expblk	1	500	0	0	0	0	0	org4	0	1776	0
120716	09:26:31	1	1	4.0.9.0	1	8	expblk	2	500	0	0	0	0	0	org1	0	5155	0
120716	09:26:31	1	1	4.0.9.0	1	9	expblk	4	500	0	0	0	0	0	org3	0	570	0
120716	09:26:31	1	1	4.0.9.0	1	10	expblk	1	500	0	0	0	0	0	org2	0	737	0
120716	09:26:31	1	1	4.0.9.0	1	11	expblk	2	500	0	0	0	0	0	org1	0	651	0
120716	09:26:31	1	1	4.0.9.0	1	12	expblk	4	500	0	0	0	0	0	stim4	1	536	0
120716	09:26:31	1	1	4.0.9.0	1	13	expblk	2	500	0	0	0	0	0	org1	0	1775	0
120716	09:26:31	1	1	4.0.9.0	1	14	expblk	1	500	0	0	0	0	0	org2	0	2029	0
120716	09:26:31	1	1	4.0.9.0	1	15	expblk	3	500	0	0	0	0	0	org4	0	1889	0
120716	09:26:31	1	1	4.0.9.0	1	16	expblk	4	500	0	0	0	0	0	org2	0	4944	0
120716	09:26:31	1	1	4.0.9.0	1	17	expblk	3	500	0	0	0	0	0	org4	0	2286	0
120716	09:26:31	1	1	4.0.9.0	1	18	expblk	2	500	0	0	0	0	0	org1	0	750	0
120716	09:26:31	1	1	4.0.9.0	1	19	expblk	4	500	0	0	0	0	0	org3	0	507	0
120716	09:26:31	1	1	4.0.9.0	1	20	expblk	1	500	0	0	0	0	0	org2	0	599	0
120716	09:26:31	1	1	4.0.9.0	1	21	expblk	4	500	0	0	0	0	0	org1	0	675	0
120716	09:26:31	1	1	4.0.9.0	1	22	expblk	1	500	0	0	0	0	0	Ctrl+'Q'	1	1908	0
120716	09:29:21	1	1	4.0.9.0	1	1	expblk	2	500	0	0	0	0	0	org1	0	2455	0
120716	09:29:21	1	1	4.0.9.0	1	2	expblk	4	500	0	0	0	0	0	org2	0	11186	0
120716	09:29:21	1	1	4.0.9.0	1	3	expblk	1	500	0	0	0	0	0	stim1	1	1094	0
120716	09:29:21	1	1	4.0.9.0	1	4	expblk	2	500	0	0	0	0	0	stim2	1	1087	0
120716	09:29:21	1	1	4.0.9.0	1	5	expblk	4	500	0	0	0	0	0	org1	0	3980	0
120716	09:29:21	1	1	4.0.9.0	1	6	expblk	2	500	0	0	0	0	0	org1	0	3983	0
120716	09:29:21	1	1	4.0.9.0	1	7	expblk	4	500	0	0	0	0	0	org2	0	2008	0
120716	09:29:21	1	1	4.0.9.0	1	8	expblk	1	500	0	0	0	0	0	org2	0	6120	0
120716	09:29:21	1	1	4.0.9.0	1	9	expblk	3	500	0	0	0	0	0	org1	0	2221	0
120716	09:29:21	1	1	4.0.9.0	1	10	expblk	1	500	0	0	0	0	0	stim1	1	4390	0
120716	09:29:21	1	1	4.0.9.0	1	11	expblk	4	500	0	0	0	0	0	stim4	1	3997	0
120716	09:29:21	1	1	4.0.9.0	1	12	expblk	3	500	0	0	0	0	0	stim3	1	3392	0
120716	09:29:21	1	1	4.0.9.0	1	13	expblk	4	500	0	0	0	0	0	org2	0	1491	0
120716	09:29:21	1	1	4.0.9.0	1	14	expblk	1	500	0	0	0	0	0	org2	0	1826	0
120716	09:29:21	1	1	4.0.9.0	1	15	expblk	3	500	0	0	0	0	0	stim3	1	1117	0
120716	09:29:21	1	1	4.0.9.0	1	16	expblk	4	500	0	0	0	0	0	stim4	1	3810	0
120716	09:29:21	1	1	4.0.9.0	1	17	expblk	2	500	0	0	0	0	0	stim2	1	952	0
120716	09:29:21	1	1	4.0.9.0	1	18	expblk	4	500	0	0	0	0	0	stim4	1	1475	0
120716	09:29:21	1	1	4.0.9.0	1	19	expblk	3	500	0	0	0	0	0	org2	0	868	0
120716	09:29:21	1	1	4.0.9.0	1	20	expblk	4	500	0	0	0	0	0	Ctrl+'Q'	1	1946	0
