date	time	group	subject	build	blocknum	trialnum	blockcode	trialcode	pretrialpause	posttrialpause	windowcenter	trialduration	trialtimeout	blocktimeout	response	correct	latency	inwindow
120916	10:06:19	1	1	4.0.9.0	2	1	exerciseblk1	F6	500	0	0	0	0	0	33	1	6670	0
120916	10:06:19	1	1	4.0.9.0	2	2	exerciseblk1	F8	500	0	0	0	0	0	33	1	370	0
120916	10:06:19	1	1	4.0.9.0	2	3	exerciseblk1	F2	500	0	0	0	0	0	33	1	102	0
120916	10:06:19	1	1	4.0.9.0	2	4	exerciseblk1	F0	500	0	0	0	0	0	Ctrl+'Q'	1	0	0
120916	10:10:09	1	1	4.0.9.0	2	1	exerciseblk1	F6	500	0	0	0	0	0	Ctrl+'Q'	1	1834	0
120916	10:14:23	1	1	4.0.9.0	2	1	exerciseblk1	F6	500	0	0	0	0	0	33	1	144	0
120916	10:14:23	1	1	4.0.9.0	2	2	exerciseblk1	F8	500	0	0	0	0	0	36	0	65	0
120916	10:14:23	1	1	4.0.9.0	2	3	exerciseblk1	F2	500	0	0	0	0	0	33	1	45	0
120916	10:14:23	1	1	4.0.9.0	2	4	exerciseblk1	F0	500	0	0	0	0	0	33	1	17	0
120916	10:14:23	1	1	4.0.9.0	2	5	exerciseblk1	F3	500	0	0	0	0	0	36	1	89	0
120916	10:14:23	1	1	4.0.9.0	2	6	exerciseblk1	F7	500	0	0	0	0	0	33	0	122	0
120916	10:14:23	1	1	4.0.9.0	2	7	exerciseblk1	F1	500	0	0	0	0	0	36	1	93	0
120916	10:14:23	1	1	4.0.9.0	2	8	exerciseblk1	F4	500	0	0	0	0	0	33	1	34	0
120916	10:14:23	1	1	4.0.9.0	2	9	exerciseblk1	F9	500	0	0	0	0	0	36	1	148	0
120916	10:14:23	1	1	4.0.9.0	2	10	exerciseblk1	F5	500	0	0	0	0	0	36	1	128	0
120916	10:14:23	1	1	4.0.9.0	2	11	exerciseblk1	F2	500	0	0	0	0	0	33	1	57	0
120916	10:14:23	1	1	4.0.9.0	2	12	exerciseblk1	F1	500	0	0	0	0	0	33	0	110	0
120916	10:14:23	1	1	4.0.9.0	3	1	judgeblk1	F7	500	0	0	0	0	0	33	0	1679	0
120916	10:14:23	1	1	4.0.9.0	3	2	judgeblk1	F1	500	0	0	0	0	0	33	0	8	0
120916	10:14:23	1	1	4.0.9.0	3	3	judgeblk1	F2	500	0	0	0	0	0	33	1	106	0
120916	10:14:23	1	1	4.0.9.0	3	4	judgeblk1	F9	500	0	0	0	0	0	33	0	945	0
120916	10:14:23	1	1	4.0.9.0	3	5	judgeblk1	F8	500	0	0	0	0	0	33	1	88	0
120916	10:14:23	1	1	4.0.9.0	3	6	judgeblk1	F5	500	0	0	0	0	0	36	1	47	0
120916	10:14:23	1	1	4.0.9.0	3	7	judgeblk1	F2	500	0	0	0	0	0	36	0	20	0
120916	10:14:23	1	1	4.0.9.0	3	8	judgeblk1	F3	500	0	0	0	0	0	33	0	31	0
120916	10:14:23	1	1	4.0.9.0	3	9	judgeblk1	F2	500	0	0	0	0	0	33	1	81	0
120916	10:14:23	1	1	4.0.9.0	3	10	judgeblk1	F0	500	0	0	0	0	0	36	0	4	0
120916	10:14:23	1	1	4.0.9.0	3	11	judgeblk1	F5	500	0	0	0	0	0	36	1	418	0
120916	10:14:23	1	1	4.0.9.0	3	12	judgeblk1	F4	500	0	0	0	0	0	36	0	81	0
120916	10:14:23	1	1	4.0.9.0	3	13	judgeblk1	F8	500	0	0	0	0	0	36	0	46	0
120916	10:14:23	1	1	4.0.9.0	3	14	judgeblk1	F2	500	0	0	0	0	0	36	0	200	0
120916	10:14:23	1	1	4.0.9.0	3	15	judgeblk1	F6	500	0	0	0	0	0	33	1	54	0
120916	10:14:23	1	1	4.0.9.0	3	16	judgeblk1	F4	500	0	0	0	0	0	33	1	10	0
120916	10:14:23	1	1	4.0.9.0	3	17	judgeblk1	F9	500	0	0	0	0	0	36	1	168	0
120916	10:14:23	1	1	4.0.9.0	3	18	judgeblk1	F5	500	0	0	0	0	0	36	1	60	0
120916	10:14:23	1	1	4.0.9.0	3	19	judgeblk1	F9	500	0	0	0	0	0	36	1	14	0
120916	10:14:23	1	1	4.0.9.0	3	20	judgeblk1	F3	500	0	0	0	0	0	36	1	1541	0
120916	10:14:23	1	1	4.0.9.0	3	21	judgeblk1	F9	500	0	0	0	0	0	36	1	134	0
120916	10:14:23	1	1	4.0.9.0	3	22	judgeblk1	F1	500	0	0	0	0	0	36	1	61	0
120916	10:14:23	1	1	4.0.9.0	3	23	judgeblk1	F8	500	0	0	0	0	0	36	0	93	0
120916	10:14:23	1	1	4.0.9.0	3	24	judgeblk1	F4	500	0	0	0	0	0	36	0	186	0
120916	10:14:23	1	1	4.0.9.0	3	25	judgeblk1	F1	500	0	0	0	0	0	36	1	174	0
120916	10:14:23	1	1	4.0.9.0	3	26	judgeblk1	F6	500	0	0	0	0	0	36	0	186	0
120916	10:14:23	1	1	4.0.9.0	3	27	judgeblk1	F3	500	0	0	0	0	0	36	1	246	0
120916	10:14:23	1	1	4.0.9.0	3	28	judgeblk1	F7	500	0	0	0	0	0	36	1	24	0
120916	10:14:23	1	1	4.0.9.0	3	29	judgeblk1	F9	500	0	0	0	0	0	36	1	18	0
120916	10:14:23	1	1	4.0.9.0	3	30	judgeblk1	F2	500	0	0	0	0	0	36	0	78	0
120916	10:14:23	1	1	4.0.9.0	3	31	judgeblk1	F4	500	0	0	0	0	0	36	0	105	0
120916	10:14:23	1	1	4.0.9.0	3	32	judgeblk1	F2	500	0	0	0	0	0	36	0	108	0
120916	10:14:23	1	1	4.0.9.0	3	33	judgeblk1	F7	500	0	0	0	0	0	36	1	62	0
120916	10:14:23	1	1	4.0.9.0	3	34	judgeblk1	F6	500	0	0	0	0	0	36	0	213	0
120916	10:14:23	1	1	4.0.9.0	3	35	judgeblk1	F9	500	0	0	0	0	0	36	1	189	0
120916	10:14:23	1	1	4.0.9.0	3	36	judgeblk1	F4	500	0	0	0	0	0	36	0	55	0
120916	10:14:23	1	1	4.0.9.0	3	37	judgeblk1	F5	500	0	0	0	0	0	36	1	315	0
120916	10:14:23	1	1	4.0.9.0	3	38	judgeblk1	F8	500	0	0	0	0	0	36	0	131	0
120916	10:14:23	1	1	4.0.9.0	3	39	judgeblk1	F6	500	0	0	0	0	0	36	0	255	0
120916	10:14:23	1	1	4.0.9.0	3	40	judgeblk1	F1	500	0	0	0	0	0	36	1	350	0
120916	10:14:23	1	1	4.0.9.0	3	41	judgeblk1	F3	500	0	0	0	0	0	36	1	203	0
120916	10:14:23	1	1	4.0.9.0	3	42	judgeblk1	F8	500	0	0	0	0	0	36	0	132	0
120916	10:14:23	1	1	4.0.9.0	3	43	judgeblk1	F3	500	0	0	0	0	0	36	1	75	0
120916	10:14:23	1	1	4.0.9.0	3	44	judgeblk1	F0	500	0	0	0	0	0	36	0	113	0
120916	10:14:23	1	1	4.0.9.0	3	45	judgeblk1	F9	500	0	0	0	0	0	36	1	143	0
120916	10:14:23	1	1	4.0.9.0	3	46	judgeblk1	F7	500	0	0	0	0	0	36	1	25	0
120916	10:14:23	1	1	4.0.9.0	3	47	judgeblk1	F2	500	0	0	0	0	0	36	0	159	0
120916	10:14:23	1	1	4.0.9.0	3	48	judgeblk1	F1	500	0	0	0	0	0	36	1	416	0
120916	10:14:23	1	1	4.0.9.0	3	49	judgeblk1	F4	500	0	0	0	0	0	36	0	158	0
120916	10:14:23	1	1	4.0.9.0	3	50	judgeblk1	F3	500	0	0	0	0	0	33	0	43	0
120916	10:14:23	1	1	4.0.9.0	3	51	judgeblk1	F6	500	0	0	0	0	0	36	0	309	0
120916	10:14:23	1	1	4.0.9.0	3	52	judgeblk1	F7	500	0	0	0	0	0	36	1	318	0
120916	10:14:23	1	1	4.0.9.0	3	53	judgeblk1	F0	500	0	0	0	0	0	33	1	567	0
120916	10:14:23	1	1	4.0.9.0	3	54	judgeblk1	F4	500	0	0	0	0	0	36	0	413	0
120916	10:14:23	1	1	4.0.9.0	3	55	judgeblk1	F7	500	0	0	0	0	0	36	1	466	0
120916	10:14:23	1	1	4.0.9.0	3	56	judgeblk1	F3	500	0	0	0	0	0	36	1	624	0
120916	10:14:23	1	1	4.0.9.0	3	57	judgeblk1	F4	500	0	0	0	0	0	33	1	416	0
120916	10:14:23	1	1	4.0.9.0	3	58	judgeblk1	F0	500	0	0	0	0	0	33	1	461	0
120916	10:14:23	1	1	4.0.9.0	3	59	judgeblk1	F6	500	0	0	0	0	0	33	1	367	0
120916	10:14:23	1	1	4.0.9.0	3	60	judgeblk1	F2	500	0	0	0	0	0	33	1	519	0
120916	10:14:23	1	1	4.0.9.0	3	61	judgeblk1	F5	500	0	0	0	0	0	36	1	496	0
120916	10:14:23	1	1	4.0.9.0	3	62	judgeblk1	F3	500	0	0	0	0	0	33	0	402	0
120916	10:14:23	1	1	4.0.9.0	3	63	judgeblk1	F5	500	0	0	0	0	0	33	0	13	0
120916	10:14:23	1	1	4.0.9.0	3	64	judgeblk1	F7	500	0	0	0	0	0	33	0	1094	0
120916	10:14:23	1	1	4.0.9.0	3	65	judgeblk1	F4	500	0	0	0	0	0	33	1	277	0
120916	10:14:23	1	1	4.0.9.0	3	66	judgeblk1	F6	500	0	0	0	0	0	33	1	285	0
120916	10:14:23	1	1	4.0.9.0	3	67	judgeblk1	F8	500	0	0	0	0	0	33	1	65	0
120916	10:14:23	1	1	4.0.9.0	3	68	judgeblk1	F9	500	0	0	0	0	0	33	0	364	0
120916	10:14:23	1	1	4.0.9.0	3	69	judgeblk1	F6	500	0	0	0	0	0	33	1	239	0
120916	10:14:23	1	1	4.0.9.0	3	70	judgeblk1	F0	500	0	0	0	0	0	33	1	60	0
120916	10:14:23	1	1	4.0.9.0	3	71	judgeblk1	F8	500	0	0	0	0	0	36	0	170	0
120916	10:14:23	1	1	4.0.9.0	3	72	judgeblk1	F7	500	0	0	0	0	0	33	0	234	0
120916	10:14:23	1	1	4.0.9.0	3	73	judgeblk1	F5	500	0	0	0	0	0	36	1	219	0
120916	10:14:23	1	1	4.0.9.0	3	74	judgeblk1	F0	500	0	0	0	0	0	33	1	460	0
120916	10:14:23	1	1	4.0.9.0	3	75	judgeblk1	F2	500	0	0	0	0	0	33	1	360	0
120916	10:14:23	1	1	4.0.9.0	3	76	judgeblk1	F8	500	0	0	0	0	0	33	1	474	0
120916	10:14:23	1	1	4.0.9.0	3	77	judgeblk1	F0	500	0	0	0	0	0	33	1	339	0
120916	10:14:23	1	1	4.0.9.0	3	78	judgeblk1	F1	500	0	0	0	0	0	33	0	460	0
120916	10:14:23	1	1	4.0.9.0	3	79	judgeblk1	F9	500	0	0	0	0	0	36	1	499	0
120916	10:14:23	1	1	4.0.9.0	3	80	judgeblk1	F0	500	0	0	0	0	0	33	1	496	0
120916	10:14:23	1	1	4.0.9.0	3	81	judgeblk1	F3	500	0	0	0	0	0	36	1	631	0
120916	10:14:23	1	1	4.0.9.0	3	82	judgeblk1	F1	500	0	0	0	0	0	33	0	483	0
120916	10:14:23	1	1	4.0.9.0	3	83	judgeblk1	F5	500	0	0	0	0	0	36	1	373	0
120916	10:14:23	1	1	4.0.9.0	3	84	judgeblk1	F6	500	0	0	0	0	0	36	0	5914	0
120916	10:14:23	1	1	4.0.9.0	3	85	judgeblk1	F5	500	0	0	0	0	0	36	1	691	0
120916	10:14:23	1	1	4.0.9.0	3	86	judgeblk1	F1	500	0	0	0	0	0	33	0	687	0
120916	10:14:23	1	1	4.0.9.0	3	87	judgeblk1	F7	500	0	0	0	0	0	36	1	763	0
120916	10:14:23	1	1	4.0.9.0	3	88	judgeblk1	F8	500	0	0	0	0	0	33	1	105	0
120916	10:14:23	1	1	4.0.9.0	3	89	judgeblk1	F1	500	0	0	0	0	0	33	0	518	0
120916	10:14:23	1	1	4.0.9.0	3	90	judgeblk1	F0	500	0	0	0	0	0	33	1	422	0
120916	10:14:23	1	1	4.0.9.0	6	1	exerciseblk2	J4	500	0	0	0	0	0	33	0	8135	0
120916	10:14:23	1	1	4.0.9.0	6	2	exerciseblk2	J1	500	0	0	0	0	0	33	1	399	0
120916	10:14:23	1	1	4.0.9.0	6	3	exerciseblk2	J3	500	0	0	0	0	0	Ctrl+'Q'	1	2388	0
120916	10:23:17	1	1	4.0.9.0	2	1	exerciseblk1	F6	500	0	0	0	0	0	33	1	17	0
120916	10:23:17	1	1	4.0.9.0	2	2	exerciseblk1	F8	500	0	0	0	0	0	36	0	2	0
120916	10:23:17	1	1	4.0.9.0	2	3	exerciseblk1	F2	500	0	0	0	0	0	33	1	32	0
120916	10:23:17	1	1	4.0.9.0	2	4	exerciseblk1	F0	500	0	0	0	0	0	33	1	27	0
120916	10:23:17	1	1	4.0.9.0	2	5	exerciseblk1	F3	500	0	0	0	0	0	36	1	33	0
120916	10:23:17	1	1	4.0.9.0	2	6	exerciseblk1	F7	500	0	0	0	0	0	33	0	57	0
120916	10:23:17	1	1	4.0.9.0	2	7	exerciseblk1	F1	500	0	0	0	0	0	36	1	42	0
120916	10:23:17	1	1	4.0.9.0	2	8	exerciseblk1	F4	500	0	0	0	0	0	33	1	27	0
120916	10:23:17	1	1	4.0.9.0	2	9	exerciseblk1	F9	500	0	0	0	0	0	36	1	60	0
120916	10:23:17	1	1	4.0.9.0	2	10	exerciseblk1	F5	500	0	0	0	0	0	36	1	61	0
120916	10:23:17	1	1	4.0.9.0	2	11	exerciseblk1	F2	500	0	0	0	0	0	33	1	56	0
120916	10:23:17	1	1	4.0.9.0	2	12	exerciseblk1	F1	500	0	0	0	0	0	36	1	57	0
120916	10:23:17	1	1	4.0.9.0	3	1	judgeblk1	F7	500	0	0	0	0	0	36	1	19	0
120916	10:23:17	1	1	4.0.9.0	3	2	judgeblk1	F1	500	0	0	0	0	0	36	1	34	0
120916	10:23:17	1	1	4.0.9.0	3	3	judgeblk1	F2	500	0	0	0	0	0	33	1	33	0
120916	10:23:17	1	1	4.0.9.0	3	4	judgeblk1	F9	500	0	0	0	0	0	36	1	37	0
120916	10:23:17	1	1	4.0.9.0	3	5	judgeblk1	F8	500	0	0	0	0	0	36	0	41	0
120916	10:23:17	1	1	4.0.9.0	3	6	judgeblk1	F5	500	0	0	0	0	0	36	1	61	0
120916	10:23:17	1	1	4.0.9.0	3	7	judgeblk1	F2	500	0	0	0	0	0	33	1	41	0
120916	10:23:17	1	1	4.0.9.0	3	8	judgeblk1	F3	500	0	0	0	0	0	36	1	46	0
120916	10:23:17	1	1	4.0.9.0	3	9	judgeblk1	F2	500	0	0	0	0	0	33	1	41	0
120916	10:23:17	1	1	4.0.9.0	3	10	judgeblk1	F0	500	0	0	0	0	0	33	1	22	0
120916	10:23:17	1	1	4.0.9.0	3	11	judgeblk1	F5	500	0	0	0	0	0	36	1	33	0
120916	10:23:17	1	1	4.0.9.0	3	12	judgeblk1	F4	500	0	0	0	0	0	36	0	33	0
120916	10:23:17	1	1	4.0.9.0	3	13	judgeblk1	F8	500	0	0	0	0	0	33	1	46	0
120916	10:23:17	1	1	4.0.9.0	3	14	judgeblk1	F2	500	0	0	0	0	0	36	0	26	0
120916	10:23:17	1	1	4.0.9.0	3	15	judgeblk1	F6	500	0	0	0	0	0	33	1	25	0
120916	10:23:17	1	1	4.0.9.0	3	16	judgeblk1	F4	500	0	0	0	0	0	33	1	24	0
120916	10:23:17	1	1	4.0.9.0	3	17	judgeblk1	F9	500	0	0	0	0	0	33	0	42	0
120916	10:23:17	1	1	4.0.9.0	3	18	judgeblk1	F5	500	0	0	0	0	0	36	1	46	0
120916	10:23:17	1	1	4.0.9.0	3	19	judgeblk1	F9	500	0	0	0	0	0	36	1	57	0
120916	10:23:17	1	1	4.0.9.0	3	20	judgeblk1	F3	500	0	0	0	0	0	36	1	44	0
120916	10:23:17	1	1	4.0.9.0	3	21	judgeblk1	F9	500	0	0	0	0	0	36	1	54	0
120916	10:23:17	1	1	4.0.9.0	3	22	judgeblk1	F1	500	0	0	0	0	0	36	1	42	0
120916	10:23:17	1	1	4.0.9.0	3	23	judgeblk1	F8	500	0	0	0	0	0	36	0	43	0
120916	10:23:17	1	1	4.0.9.0	3	24	judgeblk1	F4	500	0	0	0	0	0	33	1	37	0
120916	10:23:17	1	1	4.0.9.0	3	25	judgeblk1	F1	500	0	0	0	0	0	33	0	42	0
120916	10:23:17	1	1	4.0.9.0	3	26	judgeblk1	F6	500	0	0	0	0	0	36	0	46	0
120916	10:23:17	1	1	4.0.9.0	3	27	judgeblk1	F3	500	0	0	0	0	0	36	1	51	0
120916	10:23:17	1	1	4.0.9.0	3	28	judgeblk1	F7	500	0	0	0	0	0	36	1	34	0
120916	10:23:17	1	1	4.0.9.0	3	29	judgeblk1	F9	500	0	0	0	0	0	33	0	46	0
120916	10:23:17	1	1	4.0.9.0	3	30	judgeblk1	F2	500	0	0	0	0	0	33	1	29	0
120916	10:23:17	1	1	4.0.9.0	3	31	judgeblk1	F4	500	0	0	0	0	0	33	1	35	0
120916	10:23:17	1	1	4.0.9.0	3	32	judgeblk1	F2	500	0	0	0	0	0	33	1	54	0
120916	10:23:17	1	1	4.0.9.0	3	33	judgeblk1	F7	500	0	0	0	0	0	33	0	21	0
120916	10:23:17	1	1	4.0.9.0	3	34	judgeblk1	F6	500	0	0	0	0	0	33	1	43	0
120916	10:23:17	1	1	4.0.9.0	3	35	judgeblk1	F9	500	0	0	0	0	0	33	0	36	0
120916	10:23:17	1	1	4.0.9.0	3	36	judgeblk1	F4	500	0	0	0	0	0	36	0	36	0
120916	10:23:17	1	1	4.0.9.0	3	37	judgeblk1	F5	500	0	0	0	0	0	36	1	40	0
120916	10:23:17	1	1	4.0.9.0	3	38	judgeblk1	F8	500	0	0	0	0	0	33	1	21	0
120916	10:23:17	1	1	4.0.9.0	3	39	judgeblk1	F6	500	0	0	0	0	0	33	1	34	0
120916	10:23:17	1	1	4.0.9.0	3	40	judgeblk1	F1	500	0	0	0	0	0	36	1	31	0
120916	10:23:17	1	1	4.0.9.0	3	41	judgeblk1	F3	500	0	0	0	0	0	36	1	43	0
120916	10:23:17	1	1	4.0.9.0	3	42	judgeblk1	F8	500	0	0	0	0	0	33	1	44	0
120916	10:23:17	1	1	4.0.9.0	3	43	judgeblk1	F3	500	0	0	0	0	0	36	1	32	0
120916	10:23:17	1	1	4.0.9.0	3	44	judgeblk1	F0	500	0	0	0	0	0	33	1	62	0
120916	10:23:17	1	1	4.0.9.0	3	45	judgeblk1	F9	500	0	0	0	0	0	36	1	44	0
120916	10:23:17	1	1	4.0.9.0	3	46	judgeblk1	F7	500	0	0	0	0	0	Ctrl+'Q'	1	0	0
120916	10:32:37	1	1	4.0.9.0	2	1	exerciseblk1	F6	500	0	0	0	0	0	36	0	1783	0
120916	10:32:37	1	1	4.0.9.0	2	2	exerciseblk1	F8	500	0	0	0	0	0	33	1	800	0
120916	10:32:37	1	1	4.0.9.0	2	3	exerciseblk1	F2	500	0	0	0	0	0	33	1	450	0
120916	10:32:37	1	1	4.0.9.0	2	4	exerciseblk1	F0	500	0	0	0	0	0	33	1	551	0
120916	10:32:37	1	1	4.0.9.0	2	5	exerciseblk1	F3	500	0	0	0	0	0	36	1	479	0
120916	10:32:37	1	1	4.0.9.0	2	6	exerciseblk1	F7	500	0	0	0	0	0	36	1	610	0
120916	10:32:37	1	1	4.0.9.0	2	7	exerciseblk1	F1	500	0	0	0	0	0	33	0	338	0
120916	10:32:37	1	1	4.0.9.0	2	8	exerciseblk1	F4	500	0	0	0	0	0	33	1	418	0
120916	10:32:37	1	1	4.0.9.0	2	9	exerciseblk1	F9	500	0	0	0	0	0	36	1	285	0
120916	10:32:37	1	1	4.0.9.0	2	10	exerciseblk1	F5	500	0	0	0	0	0	33	0	312	0
120916	10:32:37	1	1	4.0.9.0	2	11	exerciseblk1	F2	500	0	0	0	0	0	36	0	481	0
120916	10:32:37	1	1	4.0.9.0	2	12	exerciseblk1	F1	500	0	0	0	0	0	36	1	587	0
120916	10:32:37	1	1	4.0.9.0	3	1	judgeblk1	F7	500	0	0	0	0	0	Ctrl+'Q'	1	355	0
120916	10:33:30	1	1	4.0.9.0	2	1	exerciseblk1	F6	500	0	0	0	0	0	33	1	42	0
120916	10:33:30	1	1	4.0.9.0	2	2	exerciseblk1	F8	500	0	0	0	0	0	33	1	30	0
120916	10:33:30	1	1	4.0.9.0	2	3	exerciseblk1	F2	500	0	0	0	0	0	33	1	60	0
120916	10:33:30	1	1	4.0.9.0	2	4	exerciseblk1	F0	500	0	0	0	0	0	33	1	24	0
120916	10:33:30	1	1	4.0.9.0	2	5	exerciseblk1	F3	500	0	0	0	0	0	36	1	51	0
120916	10:33:30	1	1	4.0.9.0	2	6	exerciseblk1	F7	500	0	0	0	0	0	36	1	39	0
120916	10:33:30	1	1	4.0.9.0	2	7	exerciseblk1	F1	500	0	0	0	0	0	33	0	34	0
120916	10:33:30	1	1	4.0.9.0	2	8	exerciseblk1	F4	500	0	0	0	0	0	36	0	22	0
120916	10:33:30	1	1	4.0.9.0	2	9	exerciseblk1	F9	500	0	0	0	0	0	36	1	59	0
120916	10:33:30	1	1	4.0.9.0	2	10	exerciseblk1	F5	500	0	0	0	0	0	36	1	36	0
120916	10:33:30	1	1	4.0.9.0	2	11	exerciseblk1	F2	500	0	0	0	0	0	33	1	51	0
120916	10:33:30	1	1	4.0.9.0	2	12	exerciseblk1	F1	500	0	0	0	0	0	36	1	44	0
120916	10:33:30	1	1	4.0.9.0	3	1	judgeblk1	F7	500	0	0	0	0	0	33	0	59	0
120916	10:33:30	1	1	4.0.9.0	3	2	judgeblk1	F1	500	0	0	0	0	0	33	0	45	0
120916	10:33:30	1	1	4.0.9.0	3	3	judgeblk1	F2	500	0	0	0	0	0	33	1	61	0
120916	10:33:30	1	1	4.0.9.0	3	4	judgeblk1	F9	500	0	0	0	0	0	33	0	39	0
120916	10:33:30	1	1	4.0.9.0	3	5	judgeblk1	F8	500	0	0	0	0	0	Ctrl+'Q'	1	0	0
120916	10:55:01	1	1	4.0.9.0	2	1	exerciseblk1	F6	500	0	0	0	0	0	33	1	35	0
120916	10:55:01	1	1	4.0.9.0	2	2	exerciseblk1	F8	500	0	0	0	0	0	33	1	34	0
120916	10:55:01	1	1	4.0.9.0	2	3	exerciseblk1	F2	500	0	0	0	0	0	36	0	25	0
120916	10:55:01	1	1	4.0.9.0	2	4	exerciseblk1	F0	500	0	0	0	0	0	33	1	52	0
120916	10:55:01	1	1	4.0.9.0	2	5	exerciseblk1	F3	500	0	0	0	0	0	33	0	54	0
120916	10:55:01	1	1	4.0.9.0	2	6	exerciseblk1	F7	500	0	0	0	0	0	36	1	57	0
120916	10:55:01	1	1	4.0.9.0	2	7	exerciseblk1	F1	500	0	0	0	0	0	36	1	17	0
120916	10:55:01	1	1	4.0.9.0	2	8	exerciseblk1	F4	500	0	0	0	0	0	36	0	38	0
120916	10:55:01	1	1	4.0.9.0	2	9	exerciseblk1	F9	500	0	0	0	0	0	36	1	52	0
120916	10:55:01	1	1	4.0.9.0	2	10	exerciseblk1	F5	500	0	0	0	0	0	36	1	41	0
120916	10:55:01	1	1	4.0.9.0	2	11	exerciseblk1	F2	500	0	0	0	0	0	33	1	35	0
120916	10:55:01	1	1	4.0.9.0	2	12	exerciseblk1	F1	500	0	0	0	0	0	36	1	34	0
120916	10:55:01	1	1	4.0.9.0	3	1	judgeblk1	F7	500	0	0	0	0	0	33	0	43	0
120916	10:55:01	1	1	4.0.9.0	3	2	judgeblk1	F1	500	0	0	0	0	0	36	1	30	0
120916	10:55:01	1	1	4.0.9.0	3	3	judgeblk1	F2	500	0	0	0	0	0	33	1	41	0
120916	10:55:01	1	1	4.0.9.0	3	4	judgeblk1	F9	500	0	0	0	0	0	33	0	34	0
120916	10:55:01	1	1	4.0.9.0	3	5	judgeblk1	F8	500	0	0	0	0	0	33	1	75	0
120916	10:55:01	1	1	4.0.9.0	3	6	judgeblk1	F5	500	0	0	0	0	0	36	1	22	0
120916	10:55:01	1	1	4.0.9.0	3	7	judgeblk1	F2	500	0	0	0	0	0	33	1	39	0
120916	10:55:01	1	1	4.0.9.0	3	8	judgeblk1	F3	500	0	0	0	0	0	33	0	41	0
120916	10:55:01	1	1	4.0.9.0	3	9	judgeblk1	F2	500	0	0	0	0	0	33	1	42	0
120916	10:55:01	1	1	4.0.9.0	3	10	judgeblk1	F0	500	0	0	0	0	0	33	1	18	0
120916	10:55:01	1	1	4.0.9.0	3	11	judgeblk1	F5	500	0	0	0	0	0	33	0	32	0
120916	10:55:01	1	1	4.0.9.0	3	12	judgeblk1	F4	500	0	0	0	0	0	33	1	38	0
120916	10:55:01	1	1	4.0.9.0	3	13	judgeblk1	F8	500	0	0	0	0	0	33	1	41	0
120916	10:55:01	1	1	4.0.9.0	3	14	judgeblk1	F2	500	0	0	0	0	0	33	1	46	0
120916	10:55:01	1	1	4.0.9.0	3	15	judgeblk1	F6	500	0	0	0	0	0	33	1	52	0
120916	10:55:01	1	1	4.0.9.0	3	16	judgeblk1	F4	500	0	0	0	0	0	33	1	36	0
120916	10:55:01	1	1	4.0.9.0	3	17	judgeblk1	F9	500	0	0	0	0	0	Ctrl+'Q'	1	0	0
120916	10:55:53	1	1	4.0.9.0	2	1	exerciseblk1	F6	500	0	0	0	0	0	33	1	53	0
120916	10:55:53	1	1	4.0.9.0	2	2	exerciseblk1	F8	500	0	0	0	0	0	36	0	36	0
120916	10:55:53	1	1	4.0.9.0	2	3	exerciseblk1	F2	500	0	0	0	0	0	36	0	36	0
120916	10:55:53	1	1	4.0.9.0	2	4	exerciseblk1	F0	500	0	0	0	0	0	33	1	44	0
120916	10:55:53	1	1	4.0.9.0	2	5	exerciseblk1	F3	500	0	0	0	0	0	36	1	47	0
120916	10:55:53	1	1	4.0.9.0	2	6	exerciseblk1	F7	500	0	0	0	0	0	36	1	34	0
120916	10:55:53	1	1	4.0.9.0	2	7	exerciseblk1	F1	500	0	0	0	0	0	36	1	18	0
120916	10:55:53	1	1	4.0.9.0	2	8	exerciseblk1	F4	500	0	0	0	0	0	33	1	38	0
120916	10:55:53	1	1	4.0.9.0	2	9	exerciseblk1	F9	500	0	0	0	0	0	36	1	26	0
120916	10:55:53	1	1	4.0.9.0	2	10	exerciseblk1	F5	500	0	0	0	0	0	36	1	49	0
120916	10:55:53	1	1	4.0.9.0	2	11	exerciseblk1	F2	500	0	0	0	0	0	33	1	29	0
120916	10:55:53	1	1	4.0.9.0	2	12	exerciseblk1	F1	500	0	0	0	0	0	33	0	56	0
120916	10:55:53	1	1	4.0.9.0	3	1	judgeblk1	F7	500	0	0	0	0	0	36	1	54	0
120916	10:55:53	1	1	4.0.9.0	3	2	judgeblk1	F1	500	0	0	0	0	0	36	1	45	0
120916	10:55:53	1	1	4.0.9.0	3	3	judgeblk1	F2	500	0	0	0	0	0	33	1	41	0
120916	10:55:53	1	1	4.0.9.0	3	4	judgeblk1	F9	500	0	0	0	0	0	36	1	19	0
120916	10:55:53	1	1	4.0.9.0	3	5	judgeblk1	F8	500	0	0	0	0	0	33	1	38	0
120916	10:55:53	1	1	4.0.9.0	3	6	judgeblk1	F5	500	0	0	0	0	0	36	1	40	0
120916	10:55:53	1	1	4.0.9.0	3	7	judgeblk1	F2	500	0	0	0	0	0	33	1	46	0
120916	10:55:53	1	1	4.0.9.0	3	8	judgeblk1	F3	500	0	0	0	0	0	36	1	28	0
120916	10:55:53	1	1	4.0.9.0	3	9	judgeblk1	F2	500	0	0	0	0	0	33	1	35	0
120916	10:55:53	1	1	4.0.9.0	3	10	judgeblk1	F0	500	0	0	0	0	0	33	1	48	0
120916	10:55:53	1	1	4.0.9.0	3	11	judgeblk1	F5	500	0	0	0	0	0	36	1	51	0
120916	10:55:53	1	1	4.0.9.0	3	12	judgeblk1	F4	500	0	0	0	0	0	33	1	40	0
120916	10:55:53	1	1	4.0.9.0	3	13	judgeblk1	F8	500	0	0	0	0	0	33	1	43	0
120916	10:55:53	1	1	4.0.9.0	3	14	judgeblk1	F2	500	0	0	0	0	0	33	1	21	0
120916	10:55:53	1	1	4.0.9.0	3	15	judgeblk1	F6	500	0	0	0	0	0	36	0	25	0
120916	10:55:53	1	1	4.0.9.0	3	16	judgeblk1	F4	500	0	0	0	0	0	36	0	43	0
120916	10:55:53	1	1	4.0.9.0	3	17	judgeblk1	F9	500	0	0	0	0	0	33	0	62	0
120916	10:55:53	1	1	4.0.9.0	3	18	judgeblk1	F5	500	0	0	0	0	0	36	1	35	0
120916	10:55:53	1	1	4.0.9.0	3	19	judgeblk1	F9	500	0	0	0	0	0	33	0	35	0
120916	10:55:53	1	1	4.0.9.0	3	20	judgeblk1	F3	500	0	0	0	0	0	36	1	37	0
120916	10:55:53	1	1	4.0.9.0	3	21	judgeblk1	F9	500	0	0	0	0	0	36	1	37	0
120916	10:55:53	1	1	4.0.9.0	3	22	judgeblk1	F1	500	0	0	0	0	0	36	1	16	0
120916	10:55:53	1	1	4.0.9.0	3	23	judgeblk1	F8	500	0	0	0	0	0	33	1	33	0
120916	10:55:53	1	1	4.0.9.0	3	24	judgeblk1	F4	500	0	0	0	0	0	33	1	58	0
120916	10:55:53	1	1	4.0.9.0	3	25	judgeblk1	F1	500	0	0	0	0	0	33	0	57	0
120916	10:55:53	1	1	4.0.9.0	3	26	judgeblk1	F6	500	0	0	0	0	0	33	1	40	0
120916	10:55:53	1	1	4.0.9.0	3	27	judgeblk1	F3	500	0	0	0	0	0	36	1	58	0
120916	10:55:53	1	1	4.0.9.0	3	28	judgeblk1	F7	500	0	0	0	0	0	36	1	43	0
120916	10:55:53	1	1	4.0.9.0	3	29	judgeblk1	F9	500	0	0	0	0	0	36	1	41	0
120916	10:55:53	1	1	4.0.9.0	3	30	judgeblk1	F2	500	0	0	0	0	0	33	1	45	0
120916	10:55:53	1	1	4.0.9.0	3	31	judgeblk1	F4	500	0	0	0	0	0	36	0	35	0
120916	10:55:53	1	1	4.0.9.0	3	32	judgeblk1	F2	500	0	0	0	0	0	33	1	47	0
120916	10:55:53	1	1	4.0.9.0	3	33	judgeblk1	F7	500	0	0	0	0	0	33	0	39	0
120916	10:55:53	1	1	4.0.9.0	3	34	judgeblk1	F6	500	0	0	0	0	0	36	0	43	0
120916	10:55:53	1	1	4.0.9.0	3	35	judgeblk1	F9	500	0	0	0	0	0	36	1	44	0
120916	10:55:53	1	1	4.0.9.0	3	36	judgeblk1	F4	500	0	0	0	0	0	33	1	44	0
120916	10:55:53	1	1	4.0.9.0	3	37	judgeblk1	F5	500	0	0	0	0	0	33	0	59	0
120916	10:55:53	1	1	4.0.9.0	3	38	judgeblk1	F8	500	0	0	0	0	0	33	1	39	0
120916	10:55:53	1	1	4.0.9.0	3	39	judgeblk1	F6	500	0	0	0	0	0	36	0	33	0
120916	10:55:53	1	1	4.0.9.0	3	40	judgeblk1	F1	500	0	0	0	0	0	36	1	60	0
120916	10:55:53	1	1	4.0.9.0	3	41	judgeblk1	F3	500	0	0	0	0	0	36	1	17	0
120916	10:55:53	1	1	4.0.9.0	3	42	judgeblk1	F8	500	0	0	0	0	0	36	0	37	0
120916	10:55:53	1	1	4.0.9.0	3	43	judgeblk1	F3	500	0	0	0	0	0	36	1	58	0
120916	10:55:53	1	1	4.0.9.0	3	44	judgeblk1	F0	500	0	0	0	0	0	33	1	53	0
120916	10:55:53	1	1	4.0.9.0	3	45	judgeblk1	F9	500	0	0	0	0	0	36	1	36	0
120916	10:55:53	1	1	4.0.9.0	3	46	judgeblk1	F7	500	0	0	0	0	0	36	1	21	0
120916	10:55:53	1	1	4.0.9.0	3	47	judgeblk1	F2	500	0	0	0	0	0	33	1	29	0
120916	10:55:53	1	1	4.0.9.0	3	48	judgeblk1	F1	500	0	0	0	0	0	33	0	36	0
120916	10:55:53	1	1	4.0.9.0	3	49	judgeblk1	F4	500	0	0	0	0	0	33	1	16	0
120916	10:55:53	1	1	4.0.9.0	3	50	judgeblk1	F3	500	0	0	0	0	0	33	0	37	0
120916	10:55:53	1	1	4.0.9.0	3	51	judgeblk1	F6	500	0	0	0	0	0	36	0	42	0
120916	10:55:53	1	1	4.0.9.0	3	52	judgeblk1	F7	500	0	0	0	0	0	36	1	62	0
120916	10:55:53	1	1	4.0.9.0	3	53	judgeblk1	F0	500	0	0	0	0	0	33	1	35	0
120916	10:55:53	1	1	4.0.9.0	3	54	judgeblk1	F4	500	0	0	0	0	0	33	1	40	0
120916	10:55:53	1	1	4.0.9.0	3	55	judgeblk1	F7	500	0	0	0	0	0	36	1	32	0
120916	10:55:53	1	1	4.0.9.0	3	56	judgeblk1	F3	500	0	0	0	0	0	33	0	33	0
120916	10:55:53	1	1	4.0.9.0	3	57	judgeblk1	F4	500	0	0	0	0	0	33	1	43	0
120916	10:55:53	1	1	4.0.9.0	3	58	judgeblk1	F0	500	0	0	0	0	0	36	0	62	0
120916	10:55:53	1	1	4.0.9.0	3	59	judgeblk1	F6	500	0	0	0	0	0	33	1	33	0
120916	10:55:53	1	1	4.0.9.0	3	60	judgeblk1	F2	500	0	0	0	0	0	36	0	40	0
120916	10:55:53	1	1	4.0.9.0	3	61	judgeblk1	F5	500	0	0	0	0	0	33	0	35	0
120916	10:55:53	1	1	4.0.9.0	3	62	judgeblk1	F3	500	0	0	0	0	0	36	1	46	0
120916	10:55:53	1	1	4.0.9.0	3	63	judgeblk1	F5	500	0	0	0	0	0	36	1	25	0
120916	10:55:53	1	1	4.0.9.0	3	64	judgeblk1	F7	500	0	0	0	0	0	36	1	59	0
120916	10:55:53	1	1	4.0.9.0	3	65	judgeblk1	F4	500	0	0	0	0	0	33	1	21	0
120916	10:55:53	1	1	4.0.9.0	3	66	judgeblk1	F6	500	0	0	0	0	0	33	1	45	0
120916	10:55:53	1	1	4.0.9.0	3	67	judgeblk1	F8	500	0	0	0	0	0	33	1	46	0
120916	10:55:53	1	1	4.0.9.0	3	68	judgeblk1	F9	500	0	0	0	0	0	36	1	43	0
120916	10:55:53	1	1	4.0.9.0	3	69	judgeblk1	F6	500	0	0	0	0	0	33	1	51	0
120916	10:55:53	1	1	4.0.9.0	3	70	judgeblk1	F0	500	0	0	0	0	0	33	1	50	0
120916	10:55:53	1	1	4.0.9.0	3	71	judgeblk1	F8	500	0	0	0	0	0	33	1	58	0
120916	10:55:53	1	1	4.0.9.0	3	72	judgeblk1	F7	500	0	0	0	0	0	36	1	49	0
120916	10:55:53	1	1	4.0.9.0	3	73	judgeblk1	F5	500	0	0	0	0	0	36	1	45	0
120916	10:55:53	1	1	4.0.9.0	3	74	judgeblk1	F0	500	0	0	0	0	0	33	1	36	0
120916	10:55:53	1	1	4.0.9.0	3	75	judgeblk1	F2	500	0	0	0	0	0	33	1	56	0
120916	10:55:53	1	1	4.0.9.0	3	76	judgeblk1	F8	500	0	0	0	0	0	33	1	26	0
120916	10:55:53	1	1	4.0.9.0	3	77	judgeblk1	F0	500	0	0	0	0	0	36	0	63	0
120916	10:55:53	1	1	4.0.9.0	3	78	judgeblk1	F1	500	0	0	0	0	0	36	1	23	0
120916	10:55:53	1	1	4.0.9.0	3	79	judgeblk1	F9	500	0	0	0	0	0	33	0	44	0
120916	10:55:53	1	1	4.0.9.0	3	80	judgeblk1	F0	500	0	0	0	0	0	36	0	71	0
120916	10:55:53	1	1	4.0.9.0	3	81	judgeblk1	F3	500	0	0	0	0	0	36	1	41	0
120916	10:55:53	1	1	4.0.9.0	3	82	judgeblk1	F1	500	0	0	0	0	0	36	1	34	0
120916	10:55:53	1	1	4.0.9.0	3	83	judgeblk1	F5	500	0	0	0	0	0	36	1	52	0
120916	10:55:53	1	1	4.0.9.0	3	84	judgeblk1	F6	500	0	0	0	0	0	36	0	19	0
120916	10:55:53	1	1	4.0.9.0	3	85	judgeblk1	F5	500	0	0	0	0	0	36	1	42	0
120916	10:55:53	1	1	4.0.9.0	3	86	judgeblk1	F1	500	0	0	0	0	0	36	1	41	0
120916	10:55:53	1	1	4.0.9.0	3	87	judgeblk1	F7	500	0	0	0	0	0	36	1	46	0
120916	10:55:53	1	1	4.0.9.0	3	88	judgeblk1	F8	500	0	0	0	0	0	33	1	33	0
120916	10:55:53	1	1	4.0.9.0	3	89	judgeblk1	F1	500	0	0	0	0	0	36	1	39	0
120916	10:55:53	1	1	4.0.9.0	3	90	judgeblk1	F0	500	0	0	0	0	0	33	1	28	0
120916	10:55:53	1	1	4.0.9.0	6	1	exerciseblk2	J4	500	0	0	0	0	0	36	1	32	0
120916	10:55:53	1	1	4.0.9.0	6	2	exerciseblk2	J1	500	0	0	0	0	0	33	1	24	0
120916	10:55:53	1	1	4.0.9.0	6	3	exerciseblk2	J3	500	0	0	0	0	0	33	1	55	0
120916	10:55:53	1	1	4.0.9.0	6	4	exerciseblk2	J5	500	0	0	0	0	0	33	1	50	0
120916	10:55:53	1	1	4.0.9.0	6	5	exerciseblk2	J6	500	0	0	0	0	0	36	1	40	0
120916	10:55:53	1	1	4.0.9.0	6	6	exerciseblk2	J2	500	0	0	0	0	0	36	1	59	0
120916	10:55:53	1	1	4.0.9.0	6	7	exerciseblk2	J7	500	0	0	0	0	0	36	0	18	0
120916	10:55:53	1	1	4.0.9.0	6	8	exerciseblk2	J8	500	0	0	0	0	0	36	1	35	0
120916	10:55:53	1	1	4.0.9.0	6	9	exerciseblk2	J0	500	0	0	0	0	0	36	1	20	0
120916	10:55:53	1	1	4.0.9.0	6	10	exerciseblk2	J9	500	0	0	0	0	0	33	1	29	0
120916	10:55:53	1	1	4.0.9.0	6	11	exerciseblk2	J7	500	0	0	0	0	0	33	1	44	0
120916	10:55:53	1	1	4.0.9.0	6	12	exerciseblk2	J8	500	0	0	0	0	0	36	1	58	0
120916	10:55:53	1	1	4.0.9.0	7	1	judgeblk2	J6	500	0	0	0	0	0	36	1	58	0
120916	10:55:53	1	1	4.0.9.0	7	2	judgeblk2	J7	500	0	0	0	0	0	33	1	34	0
120916	10:55:53	1	1	4.0.9.0	7	3	judgeblk2	J3	500	0	0	0	0	0	33	1	38	0
120916	10:55:53	1	1	4.0.9.0	7	4	judgeblk2	J4	500	0	0	0	0	0	36	1	43	0
120916	10:55:53	1	1	4.0.9.0	7	5	judgeblk2	J9	500	0	0	0	0	0	33	1	40	0
120916	10:55:53	1	1	4.0.9.0	7	6	judgeblk2	J7	500	0	0	0	0	0	33	1	58	0
120916	10:55:53	1	1	4.0.9.0	7	7	judgeblk2	J6	500	0	0	0	0	0	36	1	34	0
120916	10:55:53	1	1	4.0.9.0	7	8	judgeblk2	J3	500	0	0	0	0	0	33	1	18	0
120916	10:55:53	1	1	4.0.9.0	7	9	judgeblk2	J9	500	0	0	0	0	0	33	1	58	0
120916	10:55:53	1	1	4.0.9.0	7	10	judgeblk2	J8	500	0	0	0	0	0	33	0	38	0
120916	10:55:53	1	1	4.0.9.0	7	11	judgeblk2	J7	500	0	0	0	0	0	36	0	56	0
120916	10:55:53	1	1	4.0.9.0	7	12	judgeblk2	J0	500	0	0	0	0	0	36	1	42	0
120916	10:55:53	1	1	4.0.9.0	7	13	judgeblk2	J8	500	0	0	0	0	0	36	1	42	0
120916	10:55:53	1	1	4.0.9.0	7	14	judgeblk2	J6	500	0	0	0	0	0	33	0	53	0
120916	10:55:53	1	1	4.0.9.0	7	15	judgeblk2	J1	500	0	0	0	0	0	36	0	36	0
120916	10:55:53	1	1	4.0.9.0	7	16	judgeblk2	J3	500	0	0	0	0	0	33	1	57	0
120916	10:55:53	1	1	4.0.9.0	7	17	judgeblk2	J7	500	0	0	0	0	0	33	1	29	0
120916	10:55:53	1	1	4.0.9.0	7	18	judgeblk2	J8	500	0	0	0	0	0	36	1	58	0
120916	10:55:53	1	1	4.0.9.0	7	19	judgeblk2	J5	500	0	0	0	0	0	33	1	44	0
120916	10:55:53	1	1	4.0.9.0	7	20	judgeblk2	J4	500	0	0	0	0	0	36	1	45	0
120916	10:55:53	1	1	4.0.9.0	7	21	judgeblk2	J7	500	0	0	0	0	0	33	1	44	0
120916	10:55:53	1	1	4.0.9.0	7	22	judgeblk2	J1	500	0	0	0	0	0	36	0	34	0
120916	10:55:53	1	1	4.0.9.0	7	23	judgeblk2	J2	500	0	0	0	0	0	36	1	38	0
120916	10:55:53	1	1	4.0.9.0	7	24	judgeblk2	J4	500	0	0	0	0	0	36	1	46	0
120916	10:55:53	1	1	4.0.9.0	7	25	judgeblk2	J0	500	0	0	0	0	0	36	1	44	0
120916	10:55:53	1	1	4.0.9.0	7	26	judgeblk2	J7	500	0	0	0	0	0	33	1	45	0
120916	10:55:53	1	1	4.0.9.0	7	27	judgeblk2	J4	500	0	0	0	0	0	33	0	43	0
120916	10:55:53	1	1	4.0.9.0	7	28	judgeblk2	J8	500	0	0	0	0	0	36	1	36	0
120916	10:55:53	1	1	4.0.9.0	7	29	judgeblk2	J4	500	0	0	0	0	0	36	1	43	0
120916	10:55:53	1	1	4.0.9.0	7	30	judgeblk2	J1	500	0	0	0	0	0	36	0	33	0
120916	10:55:53	1	1	4.0.9.0	7	31	judgeblk2	J9	500	0	0	0	0	0	33	1	45	0
120916	10:55:53	1	1	4.0.9.0	7	32	judgeblk2	J0	500	0	0	0	0	0	36	1	42	0
120916	10:55:53	1	1	4.0.9.0	7	33	judgeblk2	J5	500	0	0	0	0	0	33	1	56	0
120916	10:55:53	1	1	4.0.9.0	7	34	judgeblk2	J6	500	0	0	0	0	0	36	1	59	0
120916	10:55:53	1	1	4.0.9.0	7	35	judgeblk2	J4	500	0	0	0	0	0	36	1	61	0
120916	10:55:53	1	1	4.0.9.0	7	36	judgeblk2	J6	500	0	0	0	0	0	36	1	33	0
120916	10:55:53	1	1	4.0.9.0	7	37	judgeblk2	J0	500	0	0	0	0	0	36	1	34	0
120916	10:55:53	1	1	4.0.9.0	7	38	judgeblk2	J9	500	0	0	0	0	0	33	1	49	0
120916	10:55:53	1	1	4.0.9.0	7	39	judgeblk2	J4	500	0	0	0	0	0	33	0	24	0
120916	10:55:53	1	1	4.0.9.0	7	40	judgeblk2	J3	500	0	0	0	0	0	33	1	26	0
120916	10:55:53	1	1	4.0.9.0	7	41	judgeblk2	J1	500	0	0	0	0	0	33	1	35	0
120916	10:55:53	1	1	4.0.9.0	7	42	judgeblk2	J0	500	0	0	0	0	0	36	1	42	0
120916	10:55:53	1	1	4.0.9.0	7	43	judgeblk2	J1	500	0	0	0	0	0	33	1	53	0
120916	10:55:53	1	1	4.0.9.0	7	44	judgeblk2	J5	500	0	0	0	0	0	33	1	52	0
120916	10:55:53	1	1	4.0.9.0	7	45	judgeblk2	J2	500	0	0	0	0	0	36	1	17	0
120916	10:55:53	1	1	4.0.9.0	7	46	judgeblk2	J8	500	0	0	0	0	0	36	1	38	0
120916	10:55:53	1	1	4.0.9.0	7	47	judgeblk2	J9	500	0	0	0	0	0	33	1	41	0
120916	10:55:53	1	1	4.0.9.0	7	48	judgeblk2	J6	500	0	0	0	0	0	36	1	56	0
120916	10:55:53	1	1	4.0.9.0	7	49	judgeblk2	J5	500	0	0	0	0	0	33	1	45	0
120916	10:55:53	1	1	4.0.9.0	7	50	judgeblk2	J7	500	0	0	0	0	0	33	1	57	0
120916	10:55:53	1	1	4.0.9.0	7	51	judgeblk2	J9	500	0	0	0	0	0	33	1	46	0
120916	10:55:53	1	1	4.0.9.0	7	52	judgeblk2	J1	500	0	0	0	0	0	36	0	34	0
120916	10:55:53	1	1	4.0.9.0	7	53	judgeblk2	J6	500	0	0	0	0	0	36	1	27	0
120916	10:55:53	1	1	4.0.9.0	7	54	judgeblk2	J9	500	0	0	0	0	0	33	1	50	0
120916	10:55:53	1	1	4.0.9.0	7	55	judgeblk2	J5	500	0	0	0	0	0	36	0	31	0
120916	10:55:53	1	1	4.0.9.0	7	56	judgeblk2	J1	500	0	0	0	0	0	33	1	42	0
120916	10:55:53	1	1	4.0.9.0	7	57	judgeblk2	J8	500	0	0	0	0	0	36	1	38	0
120916	10:55:53	1	1	4.0.9.0	7	58	judgeblk2	J2	500	0	0	0	0	0	36	1	53	0
120916	10:55:53	1	1	4.0.9.0	7	59	judgeblk2	J9	500	0	0	0	0	0	36	0	20	0
120916	10:55:53	1	1	4.0.9.0	7	60	judgeblk2	J2	500	0	0	0	0	0	36	1	43	0
120916	10:55:53	1	1	4.0.9.0	7	61	judgeblk2	J1	500	0	0	0	0	0	36	0	54	0
120916	10:55:53	1	1	4.0.9.0	7	62	judgeblk2	J7	500	0	0	0	0	0	33	1	54	0
120916	10:55:53	1	1	4.0.9.0	7	63	judgeblk2	J5	500	0	0	0	0	0	33	1	40	0
120916	10:55:53	1	1	4.0.9.0	7	64	judgeblk2	J8	500	0	0	0	0	0	36	1	41	0
120916	10:55:53	1	1	4.0.9.0	7	65	judgeblk2	J0	500	0	0	0	0	0	33	0	34	0
120916	10:55:53	1	1	4.0.9.0	7	66	judgeblk2	J4	500	0	0	0	0	0	36	1	40	0
120916	10:55:53	1	1	4.0.9.0	7	67	judgeblk2	J5	500	0	0	0	0	0	33	1	54	0
120916	10:55:53	1	1	4.0.9.0	7	68	judgeblk2	J9	500	0	0	0	0	0	33	1	54	0
120916	10:55:53	1	1	4.0.9.0	7	69	judgeblk2	J3	500	0	0	0	0	0	33	1	41	0
120916	10:55:53	1	1	4.0.9.0	7	70	judgeblk2	J8	500	0	0	0	0	0	36	1	33	0
120916	10:55:53	1	1	4.0.9.0	7	71	judgeblk2	J3	500	0	0	0	0	0	36	0	40	0
120916	10:55:53	1	1	4.0.9.0	7	72	judgeblk2	J2	500	0	0	0	0	0	36	1	56	0
120916	10:55:53	1	1	4.0.9.0	7	73	judgeblk2	J7	500	0	0	0	0	0	36	0	40	0
120916	10:55:53	1	1	4.0.9.0	7	74	judgeblk2	J2	500	0	0	0	0	0	36	1	41	0
120916	10:55:53	1	1	4.0.9.0	7	75	judgeblk2	J0	500	0	0	0	0	0	36	1	23	0
120916	10:55:53	1	1	4.0.9.0	7	76	judgeblk2	J6	500	0	0	0	0	0	36	1	40	0
120916	10:55:53	1	1	4.0.9.0	7	77	judgeblk2	J8	500	0	0	0	0	0	36	1	45	0
120916	10:55:53	1	1	4.0.9.0	7	78	judgeblk2	J1	500	0	0	0	0	0	36	0	73	0
120916	10:55:53	1	1	4.0.9.0	7	79	judgeblk2	J4	500	0	0	0	0	0	36	1	61	0
120916	10:55:53	1	1	4.0.9.0	7	80	judgeblk2	J2	500	0	0	0	0	0	36	1	63	0
120916	10:55:53	1	1	4.0.9.0	7	81	judgeblk2	J5	500	0	0	0	0	0	33	1	31	0
120916	10:55:53	1	1	4.0.9.0	7	82	judgeblk2	J3	500	0	0	0	0	0	33	1	48	0
120916	10:55:53	1	1	4.0.9.0	7	83	judgeblk2	J5	500	0	0	0	0	0	33	1	35	0
120916	10:55:53	1	1	4.0.9.0	7	84	judgeblk2	J0	500	0	0	0	0	0	36	1	56	0
120916	10:55:53	1	1	4.0.9.0	7	85	judgeblk2	J3	500	0	0	0	0	0	33	1	21	0
120916	10:55:53	1	1	4.0.9.0	7	86	judgeblk2	J0	500	0	0	0	0	0	36	1	47	0
120916	10:55:53	1	1	4.0.9.0	7	87	judgeblk2	J2	500	0	0	0	0	0	33	0	31	0
120916	10:55:53	1	1	4.0.9.0	7	88	judgeblk2	J6	500	0	0	0	0	0	36	1	46	0
120916	10:55:53	1	1	4.0.9.0	7	89	judgeblk2	J2	500	0	0	0	0	0	36	1	28	0
120916	10:55:53	1	1	4.0.9.0	7	90	judgeblk2	J3	500	0	0	0	0	0	33	1	47	0
