date	time	group	subject	build	blocknum	trialnum	blockcode	trialcode	pretrialpause	posttrialpause	windowcenter	trialduration	trialtimeout	blocktimeout	response	correct	latency	inwindow
120616	19:45:10	1	1	4.0.9.0	2	1	exerciseblk	bottom_right	500	0	0	0	0	0	target_4	1	11361	0
120616	19:45:10	1	1	4.0.9.0	2	2	exerciseblk	top_right	500	0	0	0	0	0	standard_3	0	2083	0
120616	19:45:10	1	1	4.0.9.0	2	3	exerciseblk	top_left	500	0	0	0	0	0	target_1	1	3810	0
120616	19:45:10	1	1	4.0.9.0	2	4	exerciseblk	bottom_left	500	0	0	0	0	0	target_3	1	1502	0
120616	19:45:10	1	1	4.0.9.0	5	1	judgeblk	top_left	500	0	0	0	0	0	target_1	1	2307	0
120616	19:45:10	1	1	4.0.9.0	5	2	judgeblk	bottom_left	500	0	0	0	0	0	target_3	1	996	0
120616	19:45:10	1	1	4.0.9.0	5	3	judgeblk	bottom_right	500	0	0	0	0	0	standard_3	0	724	0
120616	19:45:10	1	1	4.0.9.0	5	4	judgeblk	top_right	500	0	0	0	0	0	standard_3	0	2509	0
120616	19:45:10	1	1	4.0.9.0	5	5	judgeblk	bottom_left	500	0	0	0	0	0	target_3	1	2602	0
120616	19:45:10	1	1	4.0.9.0	5	6	judgeblk	bottom_right	500	0	0	0	0	0	standard_3	0	4159	0
120616	19:45:10	1	1	4.0.9.0	5	7	judgeblk	bottom_left	500	0	0	0	0	0	target_3	1	1750	0
120616	19:45:10	1	1	4.0.9.0	5	8	judgeblk	top_right	500	0	0	0	0	0	standard_3	0	4443	0
120616	19:45:10	1	1	4.0.9.0	5	9	judgeblk	top_left	500	0	0	0	0	0	standard_3	0	1643	0
120616	19:45:10	1	1	4.0.9.0	5	10	judgeblk	bottom_right	500	0	0	0	0	0	standard_3	0	1639	0
120616	19:45:10	1	1	4.0.9.0	5	11	judgeblk	bottom_left	500	0	0	0	0	0	target_3	1	9155	0
120616	19:45:10	1	1	4.0.9.0	5	12	judgeblk	bottom_right	500	0	0	0	0	0	standard_2	0	12200	0
120616	19:45:10	1	1	4.0.9.0	5	13	judgeblk	top_left	500	0	0	0	0	0	standard_3	0	4384	0
120616	19:45:10	1	1	4.0.9.0	5	14	judgeblk	top_right	500	0	0	0	0	0	target_2	1	1649	0
120616	19:45:10	1	1	4.0.9.0	5	15	judgeblk	top_left	500	0	0	0	0	0	target_1	1	2285	0
120616	19:45:10	1	1	4.0.9.0	5	16	judgeblk	top_right	500	0	0	0	0	0	standard_3	0	2760	0
120616	19:52:50	1	1	4.0.9.0	2	1	exerciseblk	top_right	500	0	0	0	0	0	target_2	1	12185	0
120616	19:52:50	1	1	4.0.9.0	2	2	exerciseblk	bottom_right	500	0	0	0	0	0	standard_2	0	13568	0
120616	19:52:50	1	1	4.0.9.0	2	3	exerciseblk	top_left	500	0	0	0	0	0	target_1	1	4896	0
120616	19:52:50	1	1	4.0.9.0	2	4	exerciseblk	bottom_left	500	0	0	0	0	0	standard_2	0	5694	0
120616	19:52:50	1	1	4.0.9.0	5	1	judgeblk	bottom_right	500	0	0	0	0	0	standard_2	0	4354	0
120616	19:52:50	1	1	4.0.9.0	5	2	judgeblk	bottom_left	500	0	0	0	0	0	target_3	1	4074	0
120616	19:52:50	1	1	4.0.9.0	5	3	judgeblk	top_right	500	0	0	0	0	0	target_2	1	1709	0
120616	19:52:50	1	1	4.0.9.0	5	4	judgeblk	top_left	500	0	0	0	0	0	target_1	1	2517	0
120616	19:52:50	1	1	4.0.9.0	5	5	judgeblk	bottom_left	500	0	0	0	0	0	target_3	1	1482	0
120616	19:52:50	1	1	4.0.9.0	5	6	judgeblk	top_right	500	0	0	0	0	0	target_2	1	1060	0
120616	19:52:50	1	1	4.0.9.0	5	7	judgeblk	bottom_right	500	0	0	0	0	0	target_4	1	1581	0
120616	19:52:50	1	1	4.0.9.0	5	8	judgeblk	top_right	500	0	0	0	0	0	target_2	1	1034	0
120616	19:52:50	1	1	4.0.9.0	5	9	judgeblk	top_left	500	0	0	0	0	0	target_1	1	1799	0
120616	19:52:50	1	1	4.0.9.0	5	10	judgeblk	bottom_right	500	0	0	0	0	0	target_4	1	2761	0
120616	19:52:50	1	1	4.0.9.0	5	11	judgeblk	bottom_left	500	0	0	0	0	0	standard_2	0	2434	0
120616	19:52:50	1	1	4.0.9.0	5	12	judgeblk	top_left	500	0	0	0	0	0	target_1	1	1808	0
120616	19:52:50	1	1	4.0.9.0	5	13	judgeblk	top_right	500	0	0	0	0	0	target_2	1	1424	0
120616	19:52:50	1	1	4.0.9.0	5	14	judgeblk	bottom_right	500	0	0	0	0	0	standard_2	0	6406	0
120616	19:52:50	1	1	4.0.9.0	5	15	judgeblk	bottom_left	500	0	0	0	0	0	standard_2	0	4294	0
120616	19:52:50	1	1	4.0.9.0	5	16	judgeblk	top_left	500	0	0	0	0	0	standard_3	0	12000	0
120616	19:59:51	1	1	4.0.9.0	2	1	exerciseblk	bottom_left	500	0	0	0	0	0	standard_2	0	3474	0
120616	19:59:51	1	1	4.0.9.0	2	2	exerciseblk	top_left	500	0	0	0	0	0	target_1	1	2576	0
120616	19:59:51	1	1	4.0.9.0	2	3	exerciseblk	top_right	500	0	0	0	0	0	target_2	1	4148	0
120616	19:59:51	1	1	4.0.9.0	2	4	exerciseblk	bottom_right	500	0	0	0	0	0	Ctrl+'Q'	1	90	0
