date	time	group	subject	build	blocknum	trialnum	blockcode	trialcode	pretrialpause	posttrialpause	windowcenter	trialduration	trialtimeout	blocktimeout	response	correct	latency	inwindow	stimulusnumber1	stimulusitem1	stimulusvpos1	stimulushpos1	stimulusonset1	stimulusnumber2	stimulusitem2	stimulusvpos2	stimulushpos2	stimulusonset2
111816	00:22:26	1	1	4.0.9.0	2	1	colorjudgeblk	yellowsamet	500	0	0	0	0	0	33	1	1694	0	1	√	50pct	50pct	2304	0	0	0	0	0
111816	00:22:26	1	1	4.0.9.0	2	2	colorjudgeblk	greenwithyellowt	500	0	0	0	0	0	33	0	892	0	1	×	50pct	50pct	1469	0	0	0	0	0
111816	00:22:26	1	1	4.0.9.0	2	3	colorjudgeblk	greensamet	500	0	0	0	0	0	33	1	715	0	1	√	50pct	50pct	1269	0	0	0	0	0
111816	00:22:26	1	1	4.0.9.0	2	4	colorjudgeblk	redwithyellowt	500	0	0	0	0	0	33	0	559	0	1	×	50pct	50pct	1152	0	0	0	0	0
111816	00:22:26	1	1	4.0.9.0	2	5	colorjudgeblk	greenwithredt	500	0	0	0	0	0	Ctrl+'Q'	1	1139	0	1	√	50pct	50pct	-1	0	0	0	0	0
111816	00:25:16	1	1	4.0.9.0	2	1	colorjudgeblk	greenwithyellowt	500	0	0	0	0	0	36	1	1002	0	1	√	50pct	50pct	1519	0	0	0	0	0
111816	00:25:16	1	1	4.0.9.0	2	2	colorjudgeblk	redsamet	500	0	0	0	0	0	33	1	986	0	1	√	50pct	50pct	1519	0	0	0	0	0
111816	00:25:16	1	1	4.0.9.0	2	3	colorjudgeblk	yellowwithredt	500	0	0	0	0	0	33	0	1472	0	1	×	50pct	50pct	2020	0	0	0	0	0
111816	00:25:16	1	1	4.0.9.0	2	4	colorjudgeblk	greenwithredt	500	0	0	0	0	0	33	0	1591	0	1	×	50pct	50pct	2120	0	0	0	0	0
111816	00:25:16	1	1	4.0.9.0	2	5	colorjudgeblk	yellowsamet	500	0	0	0	0	0	33	1	1341	0	1	√	50pct	50pct	1987	0	0	0	0	0
111816	00:25:16	1	1	4.0.9.0	2	6	colorjudgeblk	yellowwithgreent	500	0	0	0	0	0	36	1	840	0	1	√	50pct	50pct	1319	0	0	0	0	0
111816	00:25:16	1	1	4.0.9.0	2	7	colorjudgeblk	redwithgreent	500	0	0	0	0	0	36	1	1161	0	1	√	50pct	50pct	1636	0	0	0	0	0
111816	00:25:16	1	1	4.0.9.0	2	8	colorjudgeblk	greenwithredt	500	0	0	0	0	0	36	1	1117	0	1	√	50pct	50pct	1686	0	0	0	0	0
111816	00:25:16	1	1	4.0.9.0	2	9	colorjudgeblk	greensamet	500	0	0	0	0	0	33	1	733	0	1	√	50pct	50pct	1319	0	0	0	0	0
111816	00:25:16	1	1	4.0.9.0	2	10	colorjudgeblk	yellowwithgreent	500	0	0	0	0	0	36	1	730	0	1	√	50pct	50pct	1185	0	0	0	0	0
111816	00:25:16	1	1	4.0.9.0	2	11	colorjudgeblk	redwithgreent	500	0	0	0	0	0	36	1	1348	0	1	√	50pct	50pct	1886	0	0	0	0	0
111816	00:25:16	1	1	4.0.9.0	2	12	colorjudgeblk	yellowsamet	500	0	0	0	0	0	33	1	843	0	1	√	50pct	50pct	1436	0	0	0	0	0
111816	00:25:16	1	1	4.0.9.0	2	13	colorjudgeblk	greensamet	500	0	0	0	0	0	36	0	912	0	1	×	50pct	50pct	1419	0	0	0	0	0
111816	00:25:16	1	1	4.0.9.0	2	14	colorjudgeblk	yellowwithredt	500	0	0	0	0	0	Ctrl+'Q'	1	642	0	1	√	50pct	50pct	-1	0	0	0	0	0
111816	00:26:58	1	1	4.0.9.0	2	1	colorjudgeblk	greensamet	500	0	0	0	0	0	33	1	890	0	1	√	50pct	50pct	1319	0	0	0	0	0
111816	00:26:58	1	1	4.0.9.0	2	2	colorjudgeblk	greenwithyellowt	500	0	0	0	0	0	36	1	886	0	1	√	50pct	50pct	1519	0	0	0	0	0
111816	00:26:58	1	1	4.0.9.0	2	3	colorjudgeblk	greensamet	500	0	0	0	0	0	36	0	822	0	1	×	50pct	50pct	1202	0	0	0	0	0
111816	00:26:58	1	1	4.0.9.0	2	4	colorjudgeblk	greenwithredt	500	0	0	0	0	0	36	1	1315	0	1	√	50pct	50pct	2621	0	0	0	0	0
111816	00:26:58	1	1	4.0.9.0	2	5	colorjudgeblk	yellowwithredt	500	0	0	0	0	0	36	1	1264	0	1	√	50pct	50pct	2671	0	0	0	0	0
111816	00:26:58	1	1	4.0.9.0	2	6	colorjudgeblk	redwithgreent	500	0	0	0	0	0	36	1	1100	0	1	√	50pct	50pct	1586	0	0	0	0	0
111816	00:26:58	1	1	4.0.9.0	2	7	colorjudgeblk	yellowwithgreent	500	0	0	0	0	0	36	1	1080	0	1	√	50pct	50pct	2571	0	0	0	0	0
111816	00:26:58	1	1	4.0.9.0	2	8	colorjudgeblk	redsamet	500	0	0	0	0	0	33	1	821	0	1	√	50pct	50pct	1686	0	0	0	0	0
111816	00:26:58	1	1	4.0.9.0	2	9	colorjudgeblk	yellowwithredt	500	0	0	0	0	0	36	1	830	0	1	√	50pct	50pct	1469	0	0	0	0	0
111816	00:26:58	1	1	4.0.9.0	2	10	colorjudgeblk	yellowsamet	500	0	0	0	0	0	33	1	739	0	1	√	50pct	50pct	2087	0	0	0	0	0
111816	00:26:58	1	1	4.0.9.0	2	11	colorjudgeblk	redwithyellowt	500	0	0	0	0	0	36	1	972	0	1	√	50pct	50pct	1285	0	0	0	0	0
111816	00:26:58	1	1	4.0.9.0	2	12	colorjudgeblk	redwithgreent	500	0	0	0	0	0	36	1	1099	0	1	√	50pct	50pct	1452	0	0	0	0	0
111816	00:26:58	1	1	4.0.9.0	2	13	colorjudgeblk	redsamet	500	0	0	0	0	0	33	1	870	0	1	√	50pct	50pct	1218	0	0	0	0	0
111816	00:26:58	1	1	4.0.9.0	2	14	colorjudgeblk	redwithyellowt	500	0	0	0	0	0	36	1	753	0	1	√	50pct	50pct	935	0	0	0	0	0
111816	00:26:58	1	1	4.0.9.0	2	15	colorjudgeblk	yellowwithgreent	500	0	0	0	0	0	33	0	704	0	1	×	50pct	50pct	868	0	0	0	0	0
111816	00:26:58	1	1	4.0.9.0	2	16	colorjudgeblk	yellowsamet	500	0	0	0	0	0	33	1	570	0	1	√	50pct	50pct	1135	0	0	0	0	0
111816	00:26:58	1	1	4.0.9.0	2	17	colorjudgeblk	greenwithyellowt	500	0	0	0	0	0	36	1	683	0	1	√	50pct	50pct	1001	0	0	0	0	0
111816	00:26:58	1	1	4.0.9.0	2	18	colorjudgeblk	greenwithredt	500	0	0	0	0	0	36	1	908	0	1	√	50pct	50pct	1536	0	0	0	0	0
112616	22:41:49	1	1	4.0.9.0	2	1	colorjudgeblk	yellowwithredt	500	0	0	0	0	0	36	1	1589	0	1	√	50pct	50pct	2085	0	0	0	0	0
112616	22:41:49	1	1	4.0.9.0	2	2	colorjudgeblk	redsamet	500	0	0	0	0	0	33	1	1161	0	1	√	50pct	50pct	1701	0	0	0	0	0
112616	22:41:49	1	1	4.0.9.0	2	3	colorjudgeblk	yellowwithredt	500	0	0	0	0	0	36	1	611	0	1	√	50pct	50pct	1101	0	0	0	0	0
112616	22:41:49	1	1	4.0.9.0	2	4	colorjudgeblk	yellowwithgreent	500	0	0	0	0	0	36	1	469	0	1	√	50pct	50pct	1051	0	0	0	0	0
112616	22:41:49	1	1	4.0.9.0	2	5	colorjudgeblk	greensamet	500	0	0	0	0	0	33	1	727	0	1	√	50pct	50pct	1268	0	0	0	0	0
112616	22:41:49	1	1	4.0.9.0	2	6	colorjudgeblk	redwithgreent	500	0	0	0	0	0	33	0	506	0	1	×	50pct	50pct	951	0	0	0	0	0
112616	22:41:49	1	1	4.0.9.0	2	7	colorjudgeblk	yellowsamet	500	0	0	0	0	0	36	0	822	0	1	×	50pct	50pct	1301	0	0	0	0	0
112616	22:41:49	1	1	4.0.9.0	2	8	colorjudgeblk	greensamet	500	0	0	0	0	0	33	1	853	0	1	√	50pct	50pct	1434	0	0	0	0	0
112616	22:41:49	1	1	4.0.9.0	2	9	colorjudgeblk	greenwithyellowt	500	0	0	0	0	0	36	1	519	0	1	√	50pct	50pct	1151	0	0	0	0	0
112616	22:41:49	1	1	4.0.9.0	2	10	colorjudgeblk	redwithyellowt	500	0	0	0	0	0	33	0	560	0	1	×	50pct	50pct	1101	0	0	0	0	0
112616	22:41:49	1	1	4.0.9.0	2	11	colorjudgeblk	redwithgreent	500	0	0	0	0	0	33	0	489	0	1	×	50pct	50pct	1084	0	0	0	0	0
112616	22:41:49	1	1	4.0.9.0	2	12	colorjudgeblk	yellowsamet	500	0	0	0	0	0	33	1	973	0	1	√	50pct	50pct	1434	0	0	0	0	0
112616	22:41:49	1	1	4.0.9.0	2	13	colorjudgeblk	redsamet	500	0	0	0	0	0	33	1	463	0	1	√	50pct	50pct	917	0	0	0	0	0
112616	22:41:49	1	1	4.0.9.0	2	14	colorjudgeblk	yellowwithgreent	500	0	0	0	0	0	36	1	543	0	1	√	50pct	50pct	1001	0	0	0	0	0
112616	22:41:49	1	1	4.0.9.0	2	15	colorjudgeblk	greenwithredt	500	0	0	0	0	0	36	1	502	0	1	√	50pct	50pct	1051	0	0	0	0	0
112616	22:41:49	1	1	4.0.9.0	2	16	colorjudgeblk	greenwithyellowt	500	0	0	0	0	0	36	1	597	0	1	√	50pct	50pct	1051	0	0	0	0	0
112616	22:41:49	1	1	4.0.9.0	2	17	colorjudgeblk	greenwithredt	500	0	0	0	0	0	36	1	528	0	1	√	50pct	50pct	1001	0	0	0	0	0
112616	22:41:49	1	1	4.0.9.0	2	18	colorjudgeblk	redwithyellowt	500	0	0	0	0	0	36	1	516	0	1	√	50pct	50pct	1017	0	0	0	0	0
112616	22:43:06	1	1	4.0.9.0	2	1	colorjudgeblk	greenwithyellowt	500	0	0	0	0	0	36	1	788	0	1	√	50pct	50pct	1284	0	0	0	0	0
112616	22:43:06	1	1	4.0.9.0	2	2	colorjudgeblk	yellowwithredt	500	0	0	0	0	0	36	1	643	0	1	√	50pct	50pct	1101	0	0	0	0	0
112616	22:43:06	1	1	4.0.9.0	2	3	colorjudgeblk	greensamet	500	0	0	0	0	0	33	1	638	0	1	√	50pct	50pct	1234	0	0	0	0	0
112616	22:43:06	1	1	4.0.9.0	2	4	colorjudgeblk	yellowwithredt	500	0	0	0	0	0	36	1	673	0	1	√	50pct	50pct	1234	0	0	0	0	0
112616	22:43:06	1	1	4.0.9.0	2	5	colorjudgeblk	greenwithyellowt	500	0	0	0	0	0	36	1	501	0	1	√	50pct	50pct	1001	0	0	0	0	0
112616	22:43:06	1	1	4.0.9.0	2	6	colorjudgeblk	redwithgreent	500	0	0	0	0	0	36	1	601	0	1	√	50pct	50pct	1201	0	0	0	0	0
112616	22:43:06	1	1	4.0.9.0	2	7	colorjudgeblk	redsamet	500	0	0	0	0	0	33	1	613	0	1	√	50pct	50pct	1251	0	0	0	0	0
112616	22:43:06	1	1	4.0.9.0	2	8	colorjudgeblk	yellowwithgreent	500	0	0	0	0	0	36	1	560	0	1	√	50pct	50pct	1017	0	0	0	0	0
112616	22:43:06	1	1	4.0.9.0	2	9	colorjudgeblk	redwithgreent	500	0	0	0	0	0	36	1	531	0	1	√	50pct	50pct	1117	0	0	0	0	0
112616	22:43:06	1	1	4.0.9.0	2	10	colorjudgeblk	greenwithredt	500	0	0	0	0	0	36	1	897	0	1	√	50pct	50pct	1368	0	0	0	0	0
112616	22:43:06	1	1	4.0.9.0	2	11	colorjudgeblk	yellowsamet	500	0	0	0	0	0	36	0	500	0	1	×	50pct	50pct	1084	0	0	0	0	0
112616	22:43:06	1	1	4.0.9.0	2	12	colorjudgeblk	redwithyellowt	500	0	0	0	0	0	36	1	648	0	1	√	50pct	50pct	1217	0	0	0	0	0
112616	22:43:06	1	1	4.0.9.0	2	13	colorjudgeblk	greensamet	500	0	0	0	0	0	33	1	710	0	1	√	50pct	50pct	1234	0	0	0	0	0
112616	22:43:06	1	1	4.0.9.0	2	14	colorjudgeblk	greenwithredt	500	0	0	0	0	0	36	1	530	0	1	√	50pct	50pct	984	0	0	0	0	0
112616	22:43:06	1	1	4.0.9.0	2	15	colorjudgeblk	yellowwithgreent	500	0	0	0	0	0	36	1	539	0	1	√	50pct	50pct	984	0	0	0	0	0
112616	22:43:06	1	1	4.0.9.0	2	16	colorjudgeblk	redwithyellowt	500	0	0	0	0	0	36	1	527	0	1	√	50pct	50pct	984	0	0	0	0	0
112616	22:43:06	1	1	4.0.9.0	2	17	colorjudgeblk	redsamet	500	0	0	0	0	0	33	1	778	0	1	√	50pct	50pct	1318	0	0	0	0	0
112616	22:43:06	1	1	4.0.9.0	2	18	colorjudgeblk	yellowsamet	500	0	0	0	0	0	33	1	697	0	1	√	50pct	50pct	1184	0	0	0	0	0
