date	time	group	subject	build	blocknum	trialnum	blockcode	trialcode	pretrialpause	posttrialpause	windowcenter	trialduration	trialtimeout	blocktimeout	response	correct	latency	inwindow	stimulusnumber1	stimulusitem1	stimulusvpos1	stimulushpos1	stimulusonset1	stimulusnumber2	stimulusitem2	stimulusvpos2	stimulushpos2	stimulusonset2
121016	09:10:26	1	1	4.0.9.0	5	1	compatibletest	attributeA	0	250	0	0	0	0	18	1	453	0	8	富裕	50pct	50pct	1	0	0	0	0	0
121016	09:10:26	1	1	4.0.9.0	5	2	compatibletest	targetAleft	0	250	0	0	0	0	18	1	495	0	1	a1.jpg	50pct	50pct	0	0	0	0	0	0
121016	09:10:26	1	1	4.0.9.0	5	3	compatibletest	attributeA	0	250	0	0	0	0	18	1	393	0	1	有趣	50pct	50pct	1	0	0	0	0	0
121016	09:10:26	1	1	4.0.9.0	5	4	compatibletest	targetAleft	0	250	0	0	0	0	18	1	368	0	1	a1.jpg	50pct	50pct	1	0	0	0	0	0
121016	09:10:26	1	1	4.0.9.0	5	5	compatibletest	attributeA	0	250	0	0	0	0	18	1	365	0	2	极佳	50pct	50pct	0	0	0	0	0	0
121016	09:10:26	1	1	4.0.9.0	5	6	compatibletest	targetBright	0	250	0	0	0	0	23	0	767	0	1	1.jpg	50pct	50pct	1	1	×	80pct	50pct	349
121016	09:10:26	1	1	4.0.9.0	5	7	compatibletest	attributeB	0	250	0	0	0	0	23	1	330	0	7	凶狠	50pct	50pct	0	0	0	0	0	0
121016	09:10:26	1	1	4.0.9.0	5	8	compatibletest	targetAleft	0	250	0	0	0	0	18	0	1067	0	4	a4.jpg	50pct	50pct	0	1	×	80pct	50pct	316
121016	09:10:26	1	1	4.0.9.0	5	9	compatibletest	attributeA	0	250	0	0	0	0	18	0	631	0	8	富裕	50pct	50pct	1	1	×	80pct	50pct	149
121016	09:10:26	1	1	4.0.9.0	5	10	compatibletest	targetBright	0	250	0	0	0	0	23	1	29	0	1	1.jpg	50pct	50pct	0	0	0	0	0	0
121016	09:10:26	1	1	4.0.9.0	5	11	compatibletest	attributeA	0	250	0	0	0	0	18	1	215	0	3	豪华	50pct	50pct	0	0	0	0	0	0
121016	09:10:26	1	1	4.0.9.0	5	12	compatibletest	targetAleft	0	250	0	0	0	0	18	0	633	0	2	a2.jpg	50pct	50pct	0	1	×	80pct	50pct	66
121016	09:10:26	1	1	4.0.9.0	5	13	compatibletest	attributeB	0	250	0	0	0	0	23	0	715	0	8	贫穷	50pct	50pct	0	1	×	80pct	50pct	516
121016	09:10:26	1	1	4.0.9.0	5	14	compatibletest	targetAleft	0	250	0	0	0	0	18	1	615	0	3	a3.jpg	50pct	50pct	0	0	0	0	0	0
121016	09:10:26	1	1	4.0.9.0	5	15	compatibletest	attributeA	0	250	0	0	0	0	18	1	451	0	4	完美	50pct	50pct	0	0	0	0	0	0
121016	09:10:26	1	1	4.0.9.0	5	16	compatibletest	targetBright	0	250	0	0	0	0	23	1	565	0	2	2.jpg	50pct	50pct	0	0	0	0	0	0
121016	09:10:26	1	1	4.0.9.0	5	17	compatibletest	attributeB	0	250	0	0	0	0	23	0	1029	0	2	糟糕	50pct	50pct	0	1	×	80pct	50pct	549
121016	09:10:26	1	1	4.0.9.0	5	18	compatibletest	targetBright	0	250	0	0	0	0	23	0	416	0	3	3.jpg	50pct	50pct	0	1	×	80pct	50pct	283
121016	09:10:26	1	1	4.0.9.0	5	19	compatibletest	attributeB	0	250	0	0	0	0	23	1	147	0	6	邪恶	50pct	50pct	0	0	0	0	0	0
121016	09:10:26	1	1	4.0.9.0	5	20	compatibletest	targetBright	0	250	0	0	0	0	23	1	251	0	4	4.jpg	50pct	50pct	1	0	0	0	0	0
121016	09:10:26	1	1	4.0.9.0	5	21	compatibletest	attributeA	0	250	0	0	0	0	Ctrl+'Q'	0	2552	0	6	善良	50pct	50pct	3	1	×	80pct	50pct	249
121016	09:22:08	1	1	4.0.9.0	5	1	compatibletest	attributeB	0	250	0	0	0	0	23	1	38	0	3	差劲	50pct	50pct	1	0	0	0	0	0
121016	09:22:08	1	1	4.0.9.0	5	2	compatibletest	targetBright	0	250	0	0	0	0	23	1	39	0	8	8.jpg	50pct	50pct	0	0	0	0	0	0
121016	09:22:08	1	1	4.0.9.0	5	3	compatibletest	attributeB	0	250	0	0	0	0	23	0	125	0	8	贫穷	50pct	50pct	0	1	×	80pct	50pct	66
121016	09:22:08	1	1	4.0.9.0	5	4	compatibletest	targetAleft	0	250	0	0	0	0	18	1	55	0	4	a4.jpg	50pct	50pct	1	0	0	0	0	0
121016	09:22:08	1	1	4.0.9.0	5	5	compatibletest	attributeA	0	250	0	0	0	0	18	1	39	0	1	有趣	50pct	50pct	1	0	0	0	0	0
121016	09:22:08	1	1	4.0.9.0	5	6	compatibletest	targetBright	0	250	0	0	0	0	23	0	156	0	4	4.jpg	50pct	50pct	0	1	×	80pct	50pct	50
121016	09:22:08	1	1	4.0.9.0	5	7	compatibletest	attributeB	0	250	0	0	0	0	23	1	38	0	2	糟糕	50pct	50pct	0	0	0	0	0	0
121016	09:22:08	1	1	4.0.9.0	5	8	compatibletest	targetBright	0	250	0	0	0	0	23	1	39	0	1	1.jpg	50pct	50pct	0	0	0	0	0	0
121016	09:22:08	1	1	4.0.9.0	5	9	compatibletest	attributeA	0	250	0	0	0	0	18	1	41	0	1	有趣	50pct	50pct	0	0	0	0	0	0
121016	09:22:08	1	1	4.0.9.0	5	10	compatibletest	targetAleft	0	250	0	0	0	0	18	0	162	0	8	a8.jpg	50pct	50pct	0	1	×	80pct	50pct	49
121016	09:22:08	1	1	4.0.9.0	5	11	compatibletest	attributeB	0	250	0	0	0	0	23	1	29	0	7	凶狠	50pct	50pct	0	0	0	0	0	0
121016	09:22:08	1	1	4.0.9.0	5	12	compatibletest	targetAleft	0	250	0	0	0	0	18	0	77	0	7	a7.jpg	50pct	50pct	0	1	×	80pct	50pct	33
121016	09:22:08	1	1	4.0.9.0	5	13	compatibletest	attributeB	0	250	0	0	0	0	23	1	60	0	3	差劲	50pct	50pct	3	0	0	0	0	0
121016	09:22:08	1	1	4.0.9.0	5	14	compatibletest	targetAleft	0	250	0	0	0	0	18	1	27	0	5	a5.jpg	50pct	50pct	0	0	0	0	0	0
121016	09:22:08	1	1	4.0.9.0	5	15	compatibletest	attributeB	0	250	0	0	0	0	23	1	47	0	1	可怕	50pct	50pct	0	0	0	0	0	0
121016	09:22:08	1	1	4.0.9.0	5	16	compatibletest	targetBright	0	250	0	0	0	0	23	0	81	0	7	7.jpg	50pct	50pct	0	1	×	80pct	50pct	33
121016	09:22:08	1	1	4.0.9.0	5	17	compatibletest	attributeA	0	250	0	0	0	0	18	0	115	0	4	完美	50pct	50pct	1	1	×	80pct	50pct	66
121016	09:22:08	1	1	4.0.9.0	5	18	compatibletest	targetBright	0	250	0	0	0	0	23	1	47	0	2	2.jpg	50pct	50pct	3	0	0	0	0	0
121016	09:22:08	1	1	4.0.9.0	5	19	compatibletest	attributeA	0	250	0	0	0	0	18	1	31	0	5	优秀	50pct	50pct	1	0	0	0	0	0
121016	09:22:08	1	1	4.0.9.0	5	20	compatibletest	targetAleft	0	250	0	0	0	0	18	1	31	0	3	a3.jpg	50pct	50pct	1	0	0	0	0	0
121016	09:22:08	1	1	4.0.9.0	5	21	compatibletest	attributeA	0	250	0	0	0	0	18	0	84	0	8	富裕	50pct	50pct	1	1	×	80pct	50pct	49
121016	09:22:08	1	1	4.0.9.0	5	22	compatibletest	targetAleft	0	250	0	0	0	0	18	0	119	0	1	a1.jpg	50pct	50pct	0	1	×	80pct	50pct	66
121016	09:22:08	1	1	4.0.9.0	5	23	compatibletest	attributeA	0	250	0	0	0	0	18	1	34	0	2	极佳	50pct	50pct	1	0	0	0	0	0
121016	09:22:08	1	1	4.0.9.0	5	24	compatibletest	targetBright	0	250	0	0	0	0	23	0	120	0	8	8.jpg	50pct	50pct	1	1	×	80pct	50pct	66
121016	09:22:08	1	1	4.0.9.0	5	25	compatibletest	attributeB	0	250	0	0	0	0	23	1	53	0	6	邪恶	50pct	50pct	1	0	0	0	0	0
121016	09:22:08	1	1	4.0.9.0	5	26	compatibletest	targetBright	0	250	0	0	0	0	23	1	35	0	3	3.jpg	50pct	50pct	1	0	0	0	0	0
121016	09:22:08	1	1	4.0.9.0	5	27	compatibletest	attributeA	0	250	0	0	0	0	18	1	35	0	3	豪华	50pct	50pct	1	0	0	0	0	0
121016	09:22:08	1	1	4.0.9.0	5	28	compatibletest	targetBright	0	250	0	0	0	0	23	0	104	0	5	5.jpg	50pct	50pct	1	1	×	80pct	50pct	66
121016	09:22:08	1	1	4.0.9.0	5	29	compatibletest	attributeA	0	250	0	0	0	0	18	1	52	0	6	善良	50pct	50pct	1	0	0	0	0	0
121016	09:22:08	1	1	4.0.9.0	5	30	compatibletest	targetBright	0	250	0	0	0	0	23	1	36	0	6	6.jpg	50pct	50pct	1	0	0	0	0	0
121016	09:22:08	1	1	4.0.9.0	5	31	compatibletest	attributeA	0	250	0	0	0	0	18	1	52	0	7	温柔	50pct	50pct	1	0	0	0	0	0
121016	09:22:08	1	1	4.0.9.0	5	32	compatibletest	targetAleft	0	250	0	0	0	0	18	1	52	0	4	a4.jpg	50pct	50pct	1	0	0	0	0	0
121016	09:22:08	1	1	4.0.9.0	5	33	compatibletest	attributeA	0	250	0	0	0	0	18	1	41	0	3	豪华	50pct	50pct	0	0	0	0	0	0
121016	09:22:08	1	1	4.0.9.0	5	34	compatibletest	targetAleft	0	250	0	0	0	0	18	1	54	0	6	a6.jpg	50pct	50pct	1	0	0	0	0	0
121016	09:22:08	1	1	4.0.9.0	5	35	compatibletest	attributeB	0	250	0	0	0	0	23	0	138	0	4	讨厌	50pct	50pct	1	1	×	80pct	50pct	83
121016	09:22:08	1	1	4.0.9.0	5	36	compatibletest	targetBright	0	250	0	0	0	0	23	1	73	0	2	2.jpg	50pct	50pct	1	0	0	0	0	0
121016	09:22:08	1	1	4.0.9.0	5	37	compatibletest	attributeB	0	250	0	0	0	0	23	1	56	0	5	垃圾	50pct	50pct	3	0	0	0	0	0
121016	09:22:08	1	1	4.0.9.0	5	38	compatibletest	targetAleft	0	250	0	0	0	0	18	0	55	0	2	a2.jpg	50pct	50pct	0	1	×	80pct	50pct	33
121016	09:22:08	1	1	4.0.9.0	5	39	compatibletest	attributeB	0	250	0	0	0	0	23	1	59	0	1	可怕	50pct	50pct	0	0	0	0	0	0
121016	09:22:08	1	1	4.0.9.0	5	40	compatibletest	targetAleft	0	250	0	0	0	0	18	0	106	0	8	a8.jpg	50pct	50pct	1	1	×	80pct	50pct	49
121016	09:22:08	1	1	4.0.9.0	9	1	incompatibletest	attributeA	0	250	0	0	0	0	18	1	26	0	4	完美	50pct	50pct	1	0	0	0	0	0
121016	09:22:08	1	1	4.0.9.0	9	2	incompatibletest	targetAright	0	250	0	0	0	0	23	1	42	0	5	a5.jpg	50pct	50pct	0	0	0	0	0	0
121016	09:22:08	1	1	4.0.9.0	9	3	incompatibletest	attributeB	0	250	0	0	0	0	23	1	43	0	5	垃圾	50pct	50pct	0	0	0	0	0	0
121016	09:22:08	1	1	4.0.9.0	9	4	incompatibletest	targetBleft	0	250	0	0	0	0	18	1	26	0	7	7.jpg	50pct	50pct	0	0	0	0	0	0
121016	09:22:08	1	1	4.0.9.0	9	5	incompatibletest	attributeB	0	250	0	0	0	0	23	1	60	0	6	邪恶	50pct	50pct	0	0	0	0	0	0
121016	09:22:08	1	1	4.0.9.0	9	6	incompatibletest	targetAright	0	250	0	0	0	0	23	1	42	0	6	a6.jpg	50pct	50pct	0	0	0	0	0	0
121016	09:22:08	1	1	4.0.9.0	9	7	incompatibletest	attributeB	0	250	0	0	0	0	23	0	111	0	7	凶狠	50pct	50pct	0	1	×	80pct	50pct	66
121016	09:22:08	1	1	4.0.9.0	9	8	incompatibletest	targetAright	0	250	0	0	0	0	23	0	96	0	2	a2.jpg	50pct	50pct	0	1	×	80pct	50pct	49
121016	09:22:08	1	1	4.0.9.0	9	9	incompatibletest	attributeA	0	250	0	0	0	0	18	1	62	0	6	善良	50pct	50pct	1	0	0	0	0	0
121016	09:22:08	1	1	4.0.9.0	9	10	incompatibletest	targetAright	0	250	0	0	0	0	23	1	63	0	4	a4.jpg	50pct	50pct	0	0	0	0	0	0
121016	09:22:08	1	1	4.0.9.0	9	11	incompatibletest	attributeB	0	250	0	0	0	0	23	0	128	0	3	差劲	50pct	50pct	0	1	×	80pct	50pct	83
121016	09:22:08	1	1	4.0.9.0	9	12	incompatibletest	targetAright	0	250	0	0	0	0	23	1	50	0	8	a8.jpg	50pct	50pct	1	0	0	0	0	0
121016	09:22:08	1	1	4.0.9.0	9	13	incompatibletest	attributeA	0	250	0	0	0	0	18	1	65	0	7	温柔	50pct	50pct	0	0	0	0	0	0
121016	09:22:08	1	1	4.0.9.0	9	14	incompatibletest	targetBleft	0	250	0	0	0	0	18	0	102	0	2	2.jpg	50pct	50pct	1	1	×	80pct	50pct	49
121016	09:22:08	1	1	4.0.9.0	9	15	incompatibletest	attributeB	0	250	0	0	0	0	23	1	64	0	1	可怕	50pct	50pct	3	0	0	0	0	0
121016	09:22:08	1	1	4.0.9.0	9	16	incompatibletest	targetAright	0	250	0	0	0	0	23	0	131	0	1	a1.jpg	50pct	50pct	1	1	×	80pct	50pct	66
121016	09:22:08	1	1	4.0.9.0	9	17	incompatibletest	attributeA	0	250	0	0	0	0	18	1	49	0	1	有趣	50pct	50pct	1	0	0	0	0	0
121016	09:22:08	1	1	4.0.9.0	9	18	incompatibletest	targetBleft	0	250	0	0	0	0	18	1	30	0	5	5.jpg	50pct	50pct	0	0	0	0	0	0
121016	09:22:08	1	1	4.0.9.0	9	19	incompatibletest	attributeA	0	250	0	0	0	0	18	1	52	0	4	完美	50pct	50pct	0	0	0	0	0	0
121016	09:22:08	1	1	4.0.9.0	9	20	incompatibletest	targetBleft	0	250	0	0	0	0	18	0	98	0	4	4.jpg	50pct	50pct	1	1	×	80pct	50pct	66
121016	09:22:08	1	1	4.0.9.0	9	21	incompatibletest	attributeB	0	250	0	0	0	0	23	1	31	0	4	讨厌	50pct	50pct	1	0	0	0	0	0
121016	09:22:08	1	1	4.0.9.0	9	22	incompatibletest	targetAright	0	250	0	0	0	0	23	1	46	0	3	a3.jpg	50pct	50pct	1	0	0	0	0	0
121016	09:22:08	1	1	4.0.9.0	9	23	incompatibletest	attributeB	0	250	0	0	0	0	23	1	36	0	6	邪恶	50pct	50pct	1	0	0	0	0	0
121016	09:22:08	1	1	4.0.9.0	9	24	incompatibletest	targetBleft	0	250	0	0	0	0	18	1	52	0	1	1.jpg	50pct	50pct	1	0	0	0	0	0
121016	09:22:08	1	1	4.0.9.0	9	25	incompatibletest	attributeB	0	250	0	0	0	0	23	1	37	0	2	糟糕	50pct	50pct	1	0	0	0	0	0
121016	09:22:08	1	1	4.0.9.0	9	26	incompatibletest	targetBleft	0	250	0	0	0	0	18	0	169	0	8	8.jpg	50pct	50pct	1	1	×	80pct	50pct	50
121016	09:22:08	1	1	4.0.9.0	9	27	incompatibletest	attributeA	0	250	0	0	0	0	18	0	136	0	6	善良	50pct	50pct	1	1	×	80pct	50pct	83
121016	09:22:08	1	1	4.0.9.0	9	28	incompatibletest	targetAright	0	250	0	0	0	0	23	1	52	0	7	a7.jpg	50pct	50pct	3	0	0	0	0	0
121016	09:22:08	1	1	4.0.9.0	9	29	incompatibletest	attributeB	0	250	0	0	0	0	23	1	55	0	8	贫穷	50pct	50pct	3	0	0	0	0	0
121016	09:22:08	1	1	4.0.9.0	9	30	incompatibletest	targetAright	0	250	0	0	0	0	23	1	38	0	1	a1.jpg	50pct	50pct	1	0	0	0	0	0
121016	09:22:08	1	1	4.0.9.0	9	31	incompatibletest	attributeA	0	250	0	0	0	0	18	1	53	0	8	富裕	50pct	50pct	1	0	0	0	0	0
121016	09:22:08	1	1	4.0.9.0	9	32	incompatibletest	targetAright	0	250	0	0	0	0	23	1	37	0	7	a7.jpg	50pct	50pct	1	0	0	0	0	0
121016	09:22:08	1	1	4.0.9.0	9	33	incompatibletest	attributeA	0	250	0	0	0	0	18	1	53	0	3	豪华	50pct	50pct	1	0	0	0	0	0
121016	09:22:08	1	1	4.0.9.0	9	34	incompatibletest	targetBleft	0	250	0	0	0	0	18	1	52	0	6	6.jpg	50pct	50pct	1	0	0	0	0	0
121016	09:22:08	1	1	4.0.9.0	9	35	incompatibletest	attributeB	0	250	0	0	0	0	23	1	51	0	5	垃圾	50pct	50pct	1	0	0	0	0	0
121016	09:22:08	1	1	4.0.9.0	9	36	incompatibletest	targetBleft	0	250	0	0	0	0	18	1	55	0	3	3.jpg	50pct	50pct	1	0	0	0	0	0
121016	09:22:08	1	1	4.0.9.0	9	37	incompatibletest	attributeA	0	250	0	0	0	0	18	1	56	0	2	极佳	50pct	50pct	1	0	0	0	0	0
121016	09:22:08	1	1	4.0.9.0	9	38	incompatibletest	targetBleft	0	250	0	0	0	0	18	1	55	0	7	7.jpg	50pct	50pct	1	0	0	0	0	0
121016	09:22:08	1	1	4.0.9.0	9	39	incompatibletest	attributeA	0	250	0	0	0	0	18	0	85	0	5	优秀	50pct	50pct	0	1	×	80pct	50pct	33
121016	09:22:08	1	1	4.0.9.0	9	40	incompatibletest	targetBleft	0	250	0	0	0	0	18	1	40	0	6	6.jpg	50pct	50pct	1	0	0	0	0	0
